"Interval"|"ms"|0|0|1,"Utc"|"ms"|0|0|1,"Analog1"|""|0.0|5.0|25,"Battery"|"Volts"|0.0|20.0|1,"AccelX"|"G"|-3.0|3.0|25,"AccelY"|"G"|-3.0|3.0|25,"AccelZ"|"G"|-3.0|3.0|25,"Yaw"|"Deg/Sec"|-120|120|25,"Pitch"|"Deg/Sec"|-120|120|25,"Roll"|"Deg/Sec"|-120|120|25,"RPM"|""|0|10000|100,"EngineRPM"|""|0|10000|100,"AxleRpm"|""|0|10000|100,"Latitude"|"Degrees"|-180.0|180.0|10,"Longitude"|"Degrees"|-180.0|180.0|10,"Speed"|"mph"|0.0|150.0|10,"Distance"|"mi"|0.0|0.0|10,"Altitude"|"ft"|0.0|4000.0|10,"GPSSats"|""|0|20|10,"GPSQual"|""|0|5|10,"GPSDOP"|""|0.0|20.0|10,"LapCount"|""|0|0|10,"LapTime"|"Min"|0.0|0.0|10,"Sector"|""|0|0|10,"SectorTime"|"Min"|0.0|0.0|10,"PredTime"|"Min"|0.0|0.0|10,"ElapsedTime"|"Min"|0.0|0.0|10,"CurrentLap"|""|0|0|10
2651434,1501038753973,,,,,,,,,0,1560,0,,,,,,,,,,,,,,,
2651444,1501038753983,3.18,,-0.04,0.02,1.03,-1,-7,4,0,1530,0,36.113678,-115.145668,0.0,5.625,2022.7,9,3,1.8,0,0.0,-1,0.0,0.0,0.0,0
2651454,1501038753993,,,,,,,,,0,1500,0,,,,,,,,,,,,,,,
2651464,1501038753997,,,,,,,,,0,1440,0,,,,,,,,,,,,,,,
2651474,1501038754007,,,,,,,,,0,1350,0,,,,,,,,,,,,,,,
2651484,1501038754017,3.2,,0.04,0.02,1.09,-2,-8,4,0,1560,0,,,,,,,,,,,,,,,
2651494,1501038754027,,,,,,,,,0,1620,0,,,,,,,,,,,,,,,
2651504,1501038754037,,,,,,,,,0,1605,0,,,,,,,,,,,,,,,
2651514,1501038754047,,,,,,,,,0,1560,0,,,,,,,,,,,,,,,
2651524,1501038754057,3.17,,0.03,-0.01,1.09,-2,-6,4,0,1530,0,,,,,,,,,,,,,,,
2651534,1501038754067,,,,,,,,,0,1500,0,,,,,,,,,,,,,,,
2651544,1501038754077,,,,,,,,,0,1455,0,36.113678,-115.145668,0.0,5.625,2022.7,9,3,1.8,0,0.0,-1,0.0,0.0,0.0,0
2651554,1501038754093,,,,,,,,,0,1365,0,,,,,,,,,,,,,,,
2651564,1501038754103,3.18,,0.09,-0.01,1.17,-2,-7,3,0,1560,0,,,,,,,,,,,,,,,
2651574,1501038754113,,,,,,,,,0,1620,0,,,,,,,,,,,,,,,
2651584,1501038754123,,,,,,,,,0,1605,0,,,,,,,,,,,,,,,
2651594,1501038754133,,,,,,,,,0,1560,0,,,,,,,,,,,,,,,
2651604,1501038754143,3.14,,0.07,-0.03,1.12,-1,-6,3,0,1545,0,,,,,,,,,,,,,,,
2651614,1501038754153,,,,,,,,,0,1500,0,,,,,,,,,,,,,,,
2651624,1501038754163,,,,,,,,,0,1455,0,,,,,,,,,,,,,,,
2651634,1501038754173,,,,,,,,,0,1365,0,,,,,,,,,,,,,,,
2651644,1501038754183,3.13,,0.08,-0.03,1.18,-0,-5,2,0,1560,0,36.113678,-115.145668,0.0,5.625,2022.7,9,3,1.8,0,0.0,-1,0.0,0.0,0.0,0
2651654,1501038754193,,,,,,,,,0,1620,0,,,,,,,,,,,,,,,
2651664,1501038754203,,,,,,,,,0,1560,0,,,,,,,,,,,,,,,
2651674,1501038754213,,,,,,,,,0,1530,0,,,,,,,,,,,,,,,
2651684,1501038754223,3.16,,0.06,-0.03,1.12,-0,-3,1,0,1530,0,,,,,,,,,,,,,,,
2651694,1501038754233,,,,,,,,,0,1500,0,,,,,,,,,,,,,,,
2651704,1501038754243,,,,,,,,,0,1455,0,,,,,,,,,,,,,,,
2651714,1501038754253,,,,,,,,,0,1560,0,,,,,,,,,,,,,,,
2651724,1501038754263,3.11,,0.05,-0.04,1.16,-1,-2,2,0,1620,0,,,,,,,,,,,,,,,
2651734,1501038754273,,,,,,,,,0,1605,0,,,,,,,,,,,,,,,
2651744,1501038754283,,,,,,,,,0,1560,0,36.113678,-115.145668,0.0,5.625,2022.7,9,3,1.8,0,0.0,-1,0.0,0.0,0.0,0
2651754,1501038754292,,,,,,,,,0,1530,0,,,,,,,,,,,,,,,
2651764,1501038754302,3.17,,0.04,-0.03,1.12,-0,-1,2,0,1500,0,,,,,,,,,,,,,,,
2651774,1501038754312,,,,,,,,,0,1455,0,,,,,,,,,,,,,,,
2651784,1501038754322,,,,,,,,,0,1365,0,,,,,,,,,,,,,,,
2651794,1501038754332,,,,,,,,,0,1545,0,,,,,,,,,,,,,,,
2651804,1501038754342,3.14,,0.02,-0.03,1.23,-1,-3,2,0,1620,0,,,,,,,,,,,,,,,
2651814,1501038754352,,,,,,,,,0,1590,0,,,,,,,,,,,,,,,
2651824,1501038754362,,,,,,,,,0,1560,0,,,,,,,,,,,,,,,
2651834,1501038754372,,,,,,,,,0,1530,0,,,,,,,,,,,,,,,
2651844,1501038754382,3.19,,0.01,-0.0,1.14,-1,-3,3,0,1485,0,36.113678,-115.145668,0.0,5.625,2022.7,9,3,1.8,0,0.0,-1,0.0,0.0,0.0,0
2651854,1501038754392,,,,,,,,,0,1440,0,,,,,,,,,,,,,,,
2651864,1501038754402,,,,,,,,,0,1365,0,,,,,,,,,,,,,,,
2651874,1501038754412,,,,,,,,,0,1560,0,,,,,,,,,,,,,,,
2651884,1501038754422,3.16,,-0.02,-0.01,1.12,-0,-3,2,0,1620,0,,,,,,,,,,,,,,,
2651894,1501038754432,,,,,,,,,0,1590,0,,,,,,,,,,,,,,,
2651904,1501038754442,,,,,,,,,0,1545,0,,,,,,,,,,,,,,,
2651914,1501038754452,,,,,,,,,0,1530,0,,,,,,,,,,,,,,,
2651924,1501038754462,3.21,,-0.01,0.02,1.06,-1,-4,3,0,1485,0,,,,,,,,,,,,,,,
2651934,1501038754472,,,,,,,,,0,1440,0,,,,,,,,,,,,,,,
2651944,1501038754482,,,,,,,,,0,1350,0,36.113678,-115.145668,0.0,5.625,2022.7,9,3,1.8,0,0.0,-1,0.0,0.0,0.0,0
2651954,1501038754492,,,,,,,,,0,1560,0,,,,,,,,,,,,,,,
2651964,1501038754502,3.18,,-0.03,-0.01,1.07,-1,-3,2,0,1620,0,,,,,,,,,,,,,,,
2651974,1501038754512,,,,,,,,,0,1590,0,,,,,,,,,,,,,,,
2651984,1501038754522,,,,,,,,,0,1545,0,,,,,,,,,,,,,,,
2651994,1501038754532,,,,,,,,,0,1530,0,,,,,,,,,,,,,,,
2652004,1501038754542,3.21,,-0.03,0.01,1.05,-1,-4,2,0,1485,0,,,,,,,,,,,,,,,
2652014,1501038754552,,,,,,,,,0,1440,0,,,,,,,,,,,,,,,
2652024,1501038754562,,,,,,,,,0,1365,0,,,,,,,,,,,,,,,
2652034,1501038754572,,,,,,,,,0,1560,0,,,,,,,,,,,,,,,
2652044,1501038754582,3.2,4.52,-0.0,-0.04,0.99,-1,-4,1,0,1635,0,36.113678,-115.145668,0.0,5.625,2022.7,9,3,1.8,0,0.0,-1,0.0,0.0,0.0,0
2652054,1501038754592,,,,,,,,,0,1605,0,,,,,,,,,,,,,,,
2652064,1501038754602,,,,,,,,,0,1560,0,,,,,,,,,,,,,,,
2652074,1501038754612,,,,,,,,,0,1545,0,,,,,,,,,,,,,,,
2652084,1501038754622,3.22,,-0.0,-0.05,0.98,-1,-5,2,0,1500,0,,,,,,,,,,,,,,,
2652094,1501038754632,,,,,,,,,0,1455,0,,,,,,,,,,,,,,,
2652104,1501038754642,,,,,,,,,0,1365,0,,,,,,,,,,,,,,,
2652114,1501038754652,,,,,,,,,0,1560,0,,,,,,,,,,,,,,,
2652124,1501038754662,3.22,,0.03,-0.07,0.95,-1,-7,2,0,1635,0,,,,,,,,,,,,,,,
2652134,1501038754672,,,,,,,,,0,1620,0,,,,,,,,,,,,,,,
2652144,1501038754682,,,,,,,,,0,1575,0,36.113678,-115.145668,0.0,5.625,2022.7,9,3,1.8,0,0.0,-1,0.0,0.0,0.0,0
2652154,1501038754694,,,,,,,,,0,1545,0,,,,,,,,,,,,,,,
2652164,1501038754704,3.23,,0.02,-0.07,0.97,-0,-6,2,0,1500,0,,,,,,,,,,,,,,,
2652174,1501038754714,,,,,,,,,0,1455,0,,,,,,,,,,,,,,,
2652184,1501038754724,,,,,,,,,0,1365,0,,,,,,,,,,,,,,,
2652194,1501038754734,,,,,,,,,0,1560,0,,,,,,,,,,,,,,,
2652204,1501038754744,3.22,,0.04,-0.04,0.93,-1,-8,3,0,1635,0,,,,,,,,,,,,,,,
2652214,1501038754754,,,,,,,,,0,1605,0,,,,,,,,,,,,,,,
2652224,1501038754764,,,,,,,,,0,1560,0,,,,,,,,,,,,,,,
2652234,1501038754774,,,,,,,,,0,1530,0,,,,,,,,,,,,,,,
2652244,1501038754784,3.23,,0.03,-0.03,0.96,-1,-7,4,0,1500,0,36.113678,-115.145668,0.0,5.625,2022.7,9,3,1.8,0,0.0,-1,0.0,0.0,0.0,0
2652254,1501038754792,,,,,,,,,0,1455,0,,,,,,,,,,,,,,,
2652264,1501038754802,,,,,,,,,0,1365,0,,,,,,,,,,,,,,,
2652274,1501038754812,,,,,,,,,0,1560,0,,,,,,,,,,,,,,,
2652284,1501038754822,3.17,,0.02,0.0,0.94,-2,-8,4,0,1605,0,,,,,,,,,,,,,,,
2652294,1501038754832,,,,,,,,,0,1560,0,,,,,,,,,,,,,,,
2652304,1501038754842,,,,,,,,,0,1530,0,,,,,,,,,,,,,,,
2652314,1501038754852,,,,,,,,,0,1485,0,,,,,,,,,,,,,,,
2652324,1501038754862,3.22,,0.0,-0.0,0.99,-2,-8,4,0,1485,0,,,,,,,,,,,,,,,
2652334,1501038754872,,,,,,,,,0,1440,0,,,,,,,,,,,,,,,
2652344,1501038754882,,,,,,,,,0,1560,0,36.113678,-115.145668,0.0,5.625,2022.7,9,3,1.8,0,0.0,-1,0.0,0.0,0.0,0
2652354,1501038754894,,,,,,,,,0,1620,0,,,,,,,,,,,,,,,
2652364,1501038754904,3.21,,-0.03,0.01,0.97,-2,-8,3,0,1590,0,,,,,,,,,,,,,,,
2652374,1501038754914,,,,,,,,,0,1545,0,,,,,,,,,,,,,,,
2652384,1501038754924,,,,,,,,,0,1530,0,,,,,,,,,,,,,,,
2652394,1501038754934,,,,,,,,,0,1485,0,,,,,,,,,,,,,,,
2652404,1501038754944,3.17,,-0.04,0.0,1.01,-2,-6,3,0,1440,0,,,,,,,,,,,,,,,
2652414,1501038754954,,,,,,,,,0,1350,0,,,,,,,,,,,,,,,
2652424,1501038754964,,,,,,,,,0,1560,0,,,,,,,,,,,,,,,
2652434,1501038754974,,,,,,,,,0,1620,0,,,,,,,,,,,,,,,
2652444,1501038754984,3.19,,-0.07,0.01,0.96,-1,-7,2,0,1605,0,36.113678,-115.145668,0.0,5.625,2022.7,9,3,1.8,0,0.0,-1,0.0,0.0,0.0,0
2652454,1501038754994,,,,,,,,,0,1560,0,,,,,,,,,,,,,,,
2652464,1501038754996,,,,,,,,,0,1530,0,,,,,,,,,,,,,,,
2652474,1501038755006,,,,,,,,,0,1485,0,,,,,,,,,,,,,,,
2652484,1501038755016,3.21,,-0.07,0.0,1.0,-1,-5,2,0,1455,0,,,,,,,,,,,,,,,
2652494,1501038755026,,,,,,,,,0,1350,0,,,,,,,,,,,,,,,
2652504,1501038755036,,,,,,,,,0,1575,0,,,,,,,,,,,,,,,
2652514,1501038755046,,,,,,,,,0,1635,0,,,,,,,,,,,,,,,
2652524,1501038755056,3.2,,-0.08,-0.0,0.96,-1,-4,2,0,1605,0,,,,,,,,,,,,,,,
2652534,1501038755066,,,,,,,,,0,1575,0,,,,,,,,,,,,,,,
2652544,1501038755076,,,,,,,,,0,1545,0,36.113678,-115.145668,0.0,5.625,2022.7,9,3,1.8,0,0.0,-1,0.0,0.0,0.0,0
2652554,1501038755086,,,,,,,,,0,1500,0,,,,,,,,,,,,,,,
2652564,1501038755100,3.21,,-0.06,0.0,1.0,-1,-4,3,0,1455,0,,,,,,,,,,,,,,,
2652574,1501038755110,,,,,,,,,0,1380,0,,,,,,,,,,,,,,,
2652584,1501038755120,,,,,,,,,0,1575,0,,,,,,,,,,,,,,,
2652594,1501038755130,,,,,,,,,0,1650,0,,,,,,,,,,,,,,,
2652604,1501038755140,3.2,,-0.08,-0.0,0.99,-1,-3,4,0,1605,0,,,,,,,,,,,,,,,
2652614,1501038755150,,,,,,,,,0,1575,0,,,,,,,,,,,,,,,
2652624,1501038755160,,,,,,,,,0,1545,0,,,,,,,,,,,,,,,
2652634,1501038755170,,,,,,,,,0,1500,0,,,,,,,,,,,,,,,
2652644,1501038755180,3.21,,-0.04,0.0,1.05,-2,-4,5,0,1470,0,36.113678,-115.145668,0.0,5.625,2022.7,9,3,1.8,0,0.0,-1,0.0,0.0,0.0,0
2652654,1501038755194,,,,,,,,,0,1380,0,,,,,,,,,,,,,,,
2652664,1501038755204,,,,,,,,,0,1575,0,,,,,,,,,,,,,,,
2652674,1501038755214,,,,,,,,,0,1635,0,,,,,,,,,,,,,,,
2652684,1501038755224,3.21,,-0.06,-0.01,1.04,-2,-2,4,0,1605,0,,,,,,,,,,,,,,,
2652694,1501038755234,,,,,,,,,0,1575,0,,,,,,,,,,,,,,,
2652704,1501038755244,,,,,,,,,0,1545,0,,,,,,,,,,,,,,,
2652714,1501038755254,,,,,,,,,0,1500,0,,,,,,,,,,,,,,,
2652724,1501038755264,3.23,,-0.03,-0.01,1.07,-2,-4,5,0,1470,0,,,,,,,,,,,,,,,
2652734,1501038755274,,,,,,,,,0,1380,0,,,,,,,,,,,,,,,
2652744,1501038755284,,,,,,,,,0,1560,0,36.113678,-115.145668,0.0,5.625,2022.7,9,3,1.8,0,0.0,-1,0.0,0.0,0.0,0
2652754,1501038755293,,,,,,,,,0,1635,0,,,,,,,,,,,,,,,
2652764,1501038755303,3.18,,-0.04,-0.02,1.06,-2,-2,4,0,1560,0,,,,,,,,,,,,,,,
2652774,1501038755313,,,,,,,,,0,1545,0,,,,,,,,,,,,,,,
2652784,1501038755323,,,,,,,,,0,1500,0,,,,,,,,,,,,,,,
2652794,1501038755333,,,,,,,,,0,1500,0,,,,,,,,,,,,,,,
2652804,1501038755343,3.22,,-0.04,-0.02,1.07,-1,-3,3,0,1455,0,,,,,,,,,,,,,,,
2652814,1501038755353,,,,,,,,,0,1545,0,,,,,,,,,,,,,,,
2652824,1501038755363,,,,,,,,,0,1635,0,,,,,,,,,,,,,,,
2652834,1501038755373,,,,,,,,,0,1605,0,,,,,,,,,,,,,,,
2652844,1501038755383,3.22,,-0.02,-0.03,1.12,-1,-3,4,0,1560,0,36.113678,-115.145668,0.0,5.625,2022.7,9,3,1.8,0,0.0,-1,0.0,0.0,0.0,0
2652854,1501038755393,,,,,,,,,0,1530,0,,,,,,,,,,,,,,,
2652864,1501038755403,,,,,,,,,0,1500,0,,,,,,,,,,,,,,,
2652874,1501038755413,,,,,,,,,0,1455,0,,,,,,,,,,,,,,,
2652884,1501038755423,3.16,,-0.05,-0.03,1.1,-1,-4,4,0,1365,0,,,,,,,,,,,,,,,
2652894,1501038755433,,,,,,,,,0,1560,0,,,,,,,,,,,,,,,
2652904,1501038755443,,,,,,,,,0,1620,0,,,,,,,,,,,,,,,
2652914,1501038755453,,,,,,,,,0,1605,0,,,,,,,,,,,,,,,
2652924,1501038755463,3.22,,-0.02,-0.01,1.07,-1,-4,5,0,1560,0,,,,,,,,,,,,,,,
2652934,1501038755473,,,,,,,,,0,1545,0,,,,,,,,,,,,,,,
2652944,1501038755483,,,,,,,,,0,1500,0,36.113678,-115.145668,0.0,5.625,2022.7,9,3,1.8,0,0.0,-1,0.0,0.0,0.0,0
2652954,1501038755491,,,,,,,,,0,1455,0,,,,,,,,,,,,,,,
2652964,1501038755501,3.2,,-0.04,-0.03,1.02,-1,-4,5,0,1365,0,,,,,,,,,,,,,,,
2652974,1501038755511,,,,,,,,,0,1560,0,,,,,,,,,,,,,,,
2652984,1501038755521,,,,,,,,,0,1635,0,,,,,,,,,,,,,,,
2652994,1501038755531,,,,,,,,,0,1605,0,,,,,,,,,,,,,,,
2653004,1501038755541,3.22,,-0.02,-0.03,1.04,-1,-5,4,0,1575,0,,,,,,,,,,,,,,,
2653014,1501038755551,,,,,,,,,0,1545,0,,,,,,,,,,,,,,,
2653024,1501038755561,,,,,,,,,0,1500,0,,,,,,,,,,,,,,,
2653034,1501038755571,,,,,,,,,0,1455,0,,,,,,,,,,,,,,,
2653044,1501038755581,3.18,4.52,0.02,-0.08,0.99,-1,-5,3,0,1380,0,36.113678,-115.145668,0.0,5.625,2022.7,9,3,1.8,0,0.0,-1,0.0,0.0,0.0,0
2653054,1501038755593,,,,,,,,,0,1575,0,,,,,,,,,,,,,,,
2653064,1501038755603,,,,,,,,,0,1635,0,,,,,,,,,,,,,,,
2653074,1501038755613,,,,,,,,,0,1620,0,,,,,,,,,,,,,,,
2653084,1501038755623,3.21,,0.04,-0.09,0.97,-0,-6,3,0,1575,0,,,,,,,,,,,,,,,
2653094,1501038755633,,,,,,,,,0,1545,0,,,,,,,,,,,,,,,
2653104,1501038755643,,,,,,,,,0,1515,0,,,,,,,,,,,,,,,
2653114,1501038755653,,,,,,,,,0,1470,0,,,,,,,,,,,,,,,
2653124,1501038755663,3.19,,0.08,-0.1,0.95,-1,-7,3,0,1380,0,,,,,,,,,,,,,,,
2653134,1501038755673,,,,,,,,,0,1560,0,,,,,,,,,,,,,,,
2653144,1501038755683,,,,,,,,,0,1635,0,36.113678,-115.145668,0.0,5.625,2022.7,9,3,1.8,0,0.0,-1,0.0,0.0,0.0,0
2653154,1501038755691,,,,,,,,,0,1605,0,,,,,,,,,,,,,,,
2653164,1501038755701,3.22,,0.1,-0.07,0.92,-1,-8,4,0,1575,0,,,,,,,,,,,,,,,
2653174,1501038755711,,,,,,,,,0,1545,0,,,,,,,,,,,,,,,
2653184,1501038755721,,,,,,,,,0,1500,0,,,,,,,,,,,,,,,
2653194,1501038755731,,,,,,,,,0,1440,0,,,,,,,,,,,,,,,
2653204,1501038755741,3.2,,0.13,-0.06,0.9,-1,-10,3,0,1350,0,,,,,,,,,,,,,,,
2653214,1501038755751,,,,,,,,,0,1530,0,,,,,,,,,,,,,,,
2653224,1501038755761,,,,,,,,,0,1605,0,,,,,,,,,,,,,,,
2653234,1501038755771,,,,,,,,,0,1575,0,,,,,,,,,,,,,,,
2653244,1501038755781,3.22,,0.18,-0.01,0.92,-2,-11,4,0,1515,0,36.113678,-115.145668,0.0,5.625,2022.7,9,3,1.8,0,0.0,-1,0.0,0.0,0.0,0
2653254,1501038755791,,,,,,,,,0,1485,0,,,,,,,,,,,,,,,
2653264,1501038755801,,,,,,,,,0,1440,0,,,,,,,,,,,,,,,
2653274,1501038755811,,,,,,,,,0,1395,0,,,,,,,,,,,,,,,
2653284,1501038755821,3.16,,0.24,-0.0,0.94,-1,-13,4,0,1260,0,,,,,,,,,,,,,,,
2653294,1501038755831,,,,,,,,,0,1410,0,,,,,,,,,,,,,,,
2653304,1501038755841,,,,,,,,,0,1515,0,,,,,,,,,,,,,,,
2653314,1501038755851,,,,,,,,,0,1470,0,,,,,,,,,,,,,,,
2653324,1501038755861,3.18,,0.27,-0.0,0.91,-1,-15,4,0,1425,0,,,,,,,,,,,,,,,
2653334,1501038755871,,,,,,,,,0,1395,0,,,,,,,,,,,,,,,
2653344,1501038755881,,,,,,,,,0,1350,0,36.113678,-115.145668,0.0,5.625,2022.7,9,3,1.8,0,0.0,-1,0.0,0.0,0.0,0
2653354,1501038755893,,,,,,,,,0,1350,0,,,,,,,,,,,,,,,
2653364,1501038755903,3.2,,0.3,-0.03,0.92,-1,-16,5,0,1305,0,,,,,,,,,,,,,,,
2653374,1501038755913,,,,,,,,,0,1170,0,,,,,,,,,,,,,,,
2653384,1501038755923,,,,,,,,,0,1350,0,,,,,,,,,,,,,,,
2653394,1501038755933,,,,,,,,,0,1455,0,,,,,,,,,,,,,,,
2653404,1501038755943,3.13,,0.39,0.02,1.01,0,-19,6,0,1410,0,,,,,,,,,,,,,,,
2653414,1501038755953,,,,,,,,,0,1350,130,,,,,,,,,,,,,,,
2653424,1501038755963,,,,,,,,,0,1305,130,,,,,,,,,,,,,,,
2653434,1501038755973,,,,,,,,,0,1260,130,,,,,,,,,,,,,,,
2653444,1501038755983,3.13,,0.41,0.02,0.98,4,-21,4,0,1260,130,36.113678,-115.145668,0.0,5.625,2022.7,9,3,1.8,0,0.0,-1,0.0,0.0,0.0,0
2653454,1501038755993,,,,,,,,,0,1200,130,,,,,,,,,,,,,,,
2653464,1501038755995,,,,,,,,,0,1080,130,,,,,,,,,,,,,,,
2653474,1501038756005,,,,,,,,,0,1305,130,,,,,,,,,,,,,,,
2653484,1501038756015,3.14,,0.38,0.08,0.81,5,-17,4,0,1410,130,,,,,,,,,,,,,,,
2653494,1501038756025,,,,,,,,,0,1395,130,,,,,,,,,,,,,,,
2653504,1501038756035,,,,,,,,,0,1365,10000000,,,,,,,,,,,,,,,
2653514,1501038756045,,,,,,,,,0,1350,0,,,,,,,,,,,,,,,
2653524,1501038756055,3.15,,0.33,0.07,0.73,4,-12,2,0,1350,0,,,,,,,,,,,,,,,
2653534,1501038756065,,,,,,,,,0,1320,0,,,,,,,,,,,,,,,
2653544,1501038756075,,,,,,,,,0,1305,0,36.113678,-115.145668,0.0,5.625,2022.7,9,3,1.8,0,0.0,-1,0.0,0.0,0.0,0
2653554,1501038756091,,,,,,,,,0,1200,0,,,,,,,,,,,,,,,
2653564,1501038756101,3.14,,0.34,0.11,0.85,2,-9,2,0,1440,0,,,,,,,,,,,,,,,
2653574,1501038756111,,,,,,,,,0,1560,0,,,,,,,,,,,,,,,
2653584,1501038756121,,,,,,,,,0,1545,0,,,,,,,,,,,,,,,
2653594,1501038756131,,,,,,,,,0,1515,0,,,,,,,,,,,,,,,
2653604,1501038756141,3.09,,0.33,0.06,0.9,2,-5,2,0,1500,0,,,,,,,,,,,,,,,
2653614,1501038756151,,,,,,,,,0,1485,320,,,,,,,,,,,,,,,
2653624,1501038756161,,,,,,,,,0,1455,320,,,,,,,,,,,,,,,
2653634,1501038756171,,,,,,,,,0,1365,320,,,,,,,,,,,,,,,
2653644,1501038756181,3.09,,0.33,0.1,1.0,1,-3,2,0,1725,320,36.113678,-115.145668,0.0,5.625,2022.7,9,3,1.8,0,0.0,-1,0.0,0.0,0.0,0
2653654,1501038756193,,,,,,,,,0,1725,320,,,,,,,,,,,,,,,
2653664,1501038756203,,,,,,,,,0,1695,320,,,,,,,,,,,,,,,
2653674,1501038756213,,,,,,,,,0,1695,320,,,,,,,,,,,,,,,
2653684,1501038756223,3.17,,0.37,0.06,1.03,1,-4,1,0,1665,320,,,,,,,,,,,,,,,
2653694,1501038756233,,,,,,,,,0,1635,320,,,,,,,,,,,,,,,
2653704,1501038756243,,,,,,,,,0,1575,320,,,,,,,,,,,,,,,
2653714,1501038756253,,,,,,,,,0,1890,320,,,,,,,,,,,,,,,
2653724,1501038756263,3.19,,0.39,0.04,1.04,2,-5,-2,0,1890,320,,,,,,,,,,,,,,,
2653734,1501038756273,,,,,,,,,0,1860,320,,,,,,,,,,,,,,,
2653744,1501038756283,,,,,,,,,0,1845,320,36.113678,-115.145668,1.24,5.625,2035.0,9,3,1.8,0,0.0,-1,0.0,0.0,0.0,0
2653754,1501038756292,,,,,,,,,0,1830,320,,,,,,,,,,,,,,,
2653764,1501038756302,3.14,,0.37,-0.01,1.12,1,-3,-2,0,1725,0,,,,,,,,,,,,,,,
2653774,1501038756312,,,,,,,,,0,1950,140,,,,,,,,,,,,,,,
2653784,1501038756322,,,,,,,,,0,2025,140,,,,,,,,,,,,,,,
2653794,1501038756332,,,,,,,,,0,1995,140,,,,,,,,,,,,,,,
2653804,1501038756342,3.17,,0.41,-0.05,1.17,2,-5,-0,0,1980,140,,,,,,,,,,,,,,,
2653814,1501038756352,,,,,,,,,0,1965,140,,,,,,,,,,,,,,,
2653824,1501038756362,,,,,,,,,0,1845,140,,,,,,,,,,,,,,,
2653834,1501038756372,,,,,,,,,0,2070,140,,,,,,,,,,,,,,,
2653844,1501038756382,3.11,,0.49,-0.05,1.26,1,-8,2,0,2115,140,36.113678,-115.145668,1.67,5.625,2035.2,9,3,1.8,0,0.0,-1,0.0,0.0,0.0,0
2653854,1501038756392,,,,,,,,,0,2100,140,,,,,,,,,,,,,,,
2653864,1501038756402,,,,,,,,,0,2070,140,,,,,,,,,,,,,,,
2653874,1501038756412,,,,,,,,,0,2025,140,,,,,,,,,,,,,,,
2653884,1501038756422,3.12,,0.48,-0.09,1.22,1,-8,2,0,1950,140,,,,,,,,,,,,,,,
2653894,1501038756432,,,,,,,,,0,2205,260,,,,,,,,,,,,,,,
2653904,1501038756442,,,,,,,,,0,2205,260,,,,,,,,,,,,,,,
2653914,1501038756452,,,,,,,,,0,2175,260,,,,,,,,,,,,,,,
2653924,1501038756462,3.21,,0.46,-0.14,1.35,1,-10,2,0,2130,260,,,,,,,,,,,,,,,
2653934,1501038756472,,,,,,,,,0,2100,260,,,,,,,,,,,,,,,
2653944,1501038756482,,,,,,,,,0,2220,260,36.113678,-115.145668,3.02,5.625,2035.4,9,3,1.8,0,0.0,-1,0.0,0.0,0.0,0
2653954,1501038756492,,,,,,,,,0,2295,260,,,,,,,,,,,,,,,
2653964,1501038756502,3.24,,0.38,-0.11,1.18,2,-8,-1,0,2250,260,,,,,,,,,,,,,,,
2653974,1501038756512,,,,,,,,,0,2235,260,,,,,,,,,,,,,,,
2653984,1501038756522,,,,,,,,,0,2190,260,,,,,,,,,,,,,,,
2653994,1501038756532,,,,,,,,,0,2115,260,,,,,,,,,,,,,,,
2654004,1501038756542,3.24,,0.39,-0.08,1.07,2,-9,-1,0,2385,410,,,,,,,,,,,,,,,
2654014,1501038756552,,,,,,,,,0,2355,410,,,,,,,,,,,,,,,
2654024,1501038756562,,,,,,,,,0,2325,410,,,,,,,,,,,,,,,
2654034,1501038756572,,,,,,,,,0,2310,410,,,,,,,,,,,,,,,
2654044,1501038756582,3.28,4.52,0.35,-0.1,1.07,0,-7,1,0,2220,410,36.113678,-115.145668,4.08,5.625,2035.4,9,3,1.8,0,0.0,-1,0.0,0.0,0.0,0
2654054,1501038756592,,,,,,,,,0,2430,410,,,,,,,,,,,,,,,
2654064,1501038756602,,,,,,,,,0,2445,410,,,,,,,,,,,,,,,
2654074,1501038756612,,,,,,,,,0,2400,410,,,,,,,,,,,,,,,
2654084,1501038756622,3.19,,0.41,-0.07,1.24,1,-9,-1,0,2385,410,,,,,,,,,,,,,,,
2654094,1501038756632,,,,,,,,,0,2280,410,,,,,,,,,,,,,,,
2654104,1501038756642,,,,,,,,,0,2535,880,,,,,,,,,,,,,,,
2654114,1501038756652,,,,,,,,,0,2505,880,,,,,,,,,,,,,,,
2654124,1501038756662,3.22,,0.35,-0.04,1.11,1,-11,-1,0,2490,880,,,,,,,,,,,,,,,
2654134,1501038756672,,,,,,,,,0,2415,880,,,,,,,,,,,,,,,
2654144,1501038756682,,,,,,,,,0,2355,880,36.113678,-115.145676,5.05,5.625,2035.6,9,3,1.8,0,0.0,-1,0.0,0.0,0.0,0
2654154,1501038756692,,,,,,,,,0,2595,880,,,,,,,,,,,,,,,
2654164,1501038756702,3.17,,0.3,-0.03,1.2,1,-5,0,0,2520,880,,,,,,,,,,,,,,,
2654174,1501038756712,,,,,,,,,0,2520,880,,,,,,,,,,,,,,,
2654184,1501038756722,,,,,,,,,0,2460,880,,,,,,,,,,,,,,,
2654194,1501038756732,,,,,,,,,0,2550,7730,,,,,,,,,,,,,,,
2654204,1501038756742,3.27,,0.36,-0.08,1.19,1,-8,-0,0,2625,7730,,,,,,,,,,,,,,,
2654214,1501038756752,,,,,,,,,0,2565,7730,,,,,,,,,,,,,,,
2654224,1501038756762,,,,,,,,,0,2535,7730,,,,,,,,,,,,,,,
2654234,1501038756772,,,,,,,,,0,2520,7730,,,,,,,,,,,,,,,
2654244,1501038756782,3.21,,0.34,-0.02,1.02,1,-11,1,0,2595,7730,36.113674,-115.145676,6.0,5.625,2035.8,9,3,1.8,0,0.0,-1,0.0,0.0,0.0,0
2654254,1501038756792,,,,,,,,,0,2655,7730,,,,,,,,,,,,,,,
2654264,1501038756802,,,,,,,,,0,2610,7730,,,,,,,,,,,,,,,
2654274,1501038756812,,,,,,,,,0,2580,120,,,,,,,,,,,,,,,
2654284,1501038756822,3.27,,0.35,-0.05,1.01,0,-6,2,0,2490,120,,,,,,,,,,,,,,,
2654294,1501038756832,,,,,,,,,0,2715,120,,,,,,,,,,,,,,,
2654304,1501038756842,,,,,,,,,0,2655,120,,,,,,,,,,,,,,,
2654314,1501038756852,,,,,,,,,0,2625,120,,,,,,,,,,,,,,,
2654324,1501038756862,3.24,,0.34,-0.12,1.04,1,-7,1,0,2595,120,,,,,,,,,,,,,,,
2654334,1501038756872,,,,,,,,,0,2685,120,,,,,,,,,,,,,,,
2654344,1501038756882,,,,,,,,,0,2715,120,36.113674,-115.145676,6.61,5.625,2035.9,9,3,1.8,0,0.0,-1,0.0,0.0,0.0,0
2654354,1501038756892,,,,,,,,,0,2685,120,,,,,,,,,,,,,,,
2654364,1501038756902,3.21,,0.39,-0.07,1.09,-1,-7,4,0,2655,120,,,,,,,,,,,,,,,
2654374,1501038756912,,,,,,,,,0,2565,120,,,,,,,,,,,,,,,
2654384,1501038756922,,,,,,,,,0,2790,120,,,,,,,,,,,,,,,
2654394,1501038756932,,,,,,,,,0,2715,120,,,,,,,,,,,,,,,
2654404,1501038756942,3.2,,0.35,-0.01,0.91,0,-6,5,0,2685,120,,,,,,,,,,,,,,,
2654414,1501038756952,,,,,,,,,0,2640,120,,,,,,,,,,,,,,,
2654424,1501038756962,,,,,,,,,0,2715,130,,,,,,,,,,,,,,,
2654434,1501038756972,,,,,,,,,0,2745,130,,,,,,,,,,,,,,,
2654444,1501038756982,3.19,,0.32,0.05,0.74,-0,-5,6,0,2700,130,36.113674,-115.145676,7.51,5.625,2035.5,9,3,1.8,0,0.0,-1,0.0,0.0,0.0,0
2654454,1501038756992,,,,,,,,,0,2640,130,,,,,,,,,,,,,,,
2654464,1501038756996,,,,,,,,,0,2595,130,,,,,,,,,,,,,,,
2654474,1501038757006,,,,,,,,,0,2820,130,,,,,,,,,,,,,,,
2654484,1501038757016,3.13,,0.28,0.0,0.78,-0,-1,4,0,2745,130,,,,,,,,,,,,,,,
2654494,1501038757026,,,,,,,,,0,2715,140,,,,,,,,,,,,,,,
2654504,1501038757036,,,,,,,,,0,2625,140,,,,,,,,,,,,,,,
2654514,1501038757046,,,,,,,,,0,2835,140,,,,,,,,,,,,,,,
2654524,1501038757056,3.18,,0.38,-0.09,1.01,-1,-2,3,0,2760,140,,,,,,,,,,,,,,,
2654534,1501038757066,,,,,,,,,0,2745,140,,,,,,,,,,,,,,,
2654544,1501038757076,,,,,,,,,0,2685,140,36.113674,-115.145691,7.97,5.626,2035.5,9,3,1.8,0,0.0,-1,0.0,0.0,0.0,0
2654554,1501038757092,,,,,,,,,0,2760,150,,,,,,,,,,,,,,,
2654564,1501038757102,3.21,,0.4,-0.1,0.97,-1,-5,4,0,2775,150,,,,,,,,,,,,,,,
2654574,1501038757112,,,,,,,,,0,2760,150,,,,,,,,,,,,,,,
2654584,1501038757122,,,,,,,,,0,2730,150,,,,,,,,,,,,,,,
2654594,1501038757132,,,,,,,,,0,2625,150,,,,,,,,,,,,,,,
2654604,1501038757142,3.19,,0.39,0.0,0.8,-2,-7,3,0,2820,150,,,,,,,,,,,,,,,
2654614,1501038757152,,,,,,,,,0,2775,160,,,,,,,,,,,,,,,
2654624,1501038757162,,,,,,,,,0,2700,160,,,,,,,,,,,,,,,
2654634,1501038757172,,,,,,,,,0,2670,160,,,,,,,,,,,,,,,
2654644,1501038757182,3.2,,0.38,0.07,0.65,-2,-8,5,0,2760,160,36.113674,-115.145691,8.46,5.626,2035.5,9,3,1.8,0,0.0,-1,0.0,0.0,0.0,0
2654654,1501038757192,,,,,,,,,0,2745,160,,,,,,,,,,,,,,,
2654664,1501038757202,,,,,,,,,0,2760,160,,,,,,,,,,,,,,,
2654674,1501038757212,,,,,,,,,0,2670,160,,,,,,,,,,,,,,,
2654684,1501038757222,3.22,,0.38,-0.0,0.6,-0,-5,4,0,2775,160,,,,,,,,,,,,,,,
2654694,1501038757232,,,,,,,,,0,2760,160,,,,,,,,,,,,,,,
2654704,1501038757242,,,,,,,,,0,2775,160,,,,,,,,,,,,,,,
2654714,1501038757252,,,,,,,,,0,2700,160,,,,,,,,,,,,,,,
2654724,1501038757262,3.18,,0.31,-0.09,0.71,-0,-0,5,0,2640,160,,,,,,,,,,,,,,,
2654734,1501038757272,,,,,,,,,0,2820,170,,,,,,,,,,,,,,,
2654744,1501038757282,,,,,,,,,0,2775,170,36.113674,-115.145691,9.25,5.626,2035.4,9,3,1.8,0,0.0,-1,0.0,0.0,0.0,0
2654754,1501038757291,,,,,,,,,0,2760,170,,,,,,,,,,,,,,,
2654764,1501038757301,3.2,,0.31,-0.1,0.96,-1,-1,1,0,2670,170,,,,,,,,,,,,,,,
2654774,1501038757311,,,,,,,,,0,2775,170,,,,,,,,,,,,,,,
2654784,1501038757321,,,,,,,,,0,2775,170,,,,,,,,,,,,,,,
2654794,1501038757331,,,,,,,,,0,2760,170,,,,,,,,,,,,,,,
2654804,1501038757341,3.17,,0.33,-0.07,0.95,-2,-4,2,0,2670,170,,,,,,,,,,,,,,,
2654814,1501038757351,,,,,,,,,0,2655,170,,,,,,,,,,,,,,,
2654824,1501038757361,,,,,,,,,0,2820,170,,,,,,,,,,,,,,,
2654834,1501038757371,,,,,,,,,0,2805,170,,,,,,,,,,,,,,,
2654844,1501038757381,3.16,,0.28,-0.01,0.77,-2,-7,3,0,2715,170,36.113674,-115.145706,9.94,5.626,2035.4,9,3,1.8,0,0.0,-1,0.0,0.0,0.0,0
2654854,1501038757393,,,,,,,,,0,2655,170,,,,,,,,,,,,,,,
2654864,1501038757403,,,,,,,,,0,2835,170,,,,,,,,,,,,,,,
2654874,1501038757413,,,,,,,,,0,2790,170,,,,,,,,,,,,,,,
2654884,1501038757423,3.23,,0.28,0.07,0.58,-1,-7,4,0,2790,170,,,,,,,,,,,,,,,
2654894,1501038757433,,,,,,,,,0,2700,170,,,,,,,,,,,,,,,
2654904,1501038757443,,,,,,,,,0,2790,180,,,,,,,,,,,,,,,
2654914,1501038757453,,,,,,,,,0,2790,180,,,,,,,,,,,,,,,
2654924,1501038757463,3.15,,0.31,-0.12,0.61,-2,-6,3,0,2790,180,,,,,,,,,,,,,,,
2654934,1501038757473,,,,,,,,,0,2715,180,,,,,,,,,,,,,,,
2654944,1501038757483,,,,,,,,,0,2655,180,36.113674,-115.145706,10.42,5.627,2035.4,9,3,1.8,0,0.0,-1,0.0,0.0,0.0,0
2654954,1501038757493,,,,,,,,,0,2820,190,,,,,,,,,,,,,,,
2654964,1501038757503,3.14,,0.25,-0.03,0.77,-0,-1,4,0,2790,190,,,,,,,,,,,,,,,
2654974,1501038757513,,,,,,,,,0,2715,190,,,,,,,,,,,,,,,
2654984,1501038757523,,,,,,,,,0,2655,190,,,,,,,,,,,,,,,
2654994,1501038757533,,,,,,,,,0,2835,190,,,,,,,,,,,,,,,
2655004,1501038757543,3.06,,0.28,-0.07,1.01,-1,2,1,0,2790,190,,,,,,,,,,,,,,,
2655014,1501038757553,,,,,,,,,0,2790,190,,,,,,,,,,,,,,,
2655024,1501038757563,,,,,,,,,0,2700,190,,,,,,,,,,,,,,,
2655034,1501038757573,,,,,,,,,0,2805,190,,,,,,,,,,,,,,,
2655044,1501038757583,3.11,4.51,0.28,0.03,1.08,-2,-1,3,0,2805,190,36.11367,-115.145714,10.93,5.627,2035.4,9,3,1.8,0,0.0,-1,0.0,0.0,0.0,0
2655054,1501038757591,,,,,,,,,0,2790,190,,,,,,,,,,,,,,,
2655064,1501038757601,,,,,,,,,0,2685,190,,,,,,,,,,,,,,,
2655074,1501038757611,,,,,,,,,0,2655,190,,,,,,,,,,,,,,,
2655084,1501038757621,3.2,,0.28,0.09,0.91,-2,-4,2,0,2820,190,,,,,,,,,,,,,,,
2655094,1501038757631,,,,,,,,,0,2775,190,,,,,,,,,,,,,,,
2655104,1501038757641,,,,,,,,,0,2715,200,,,,,,,,,,,,,,,
2655114,1501038757651,,,,,,,,,0,2655,200,,,,,,,,,,,,,,,
2655124,1501038757661,3.15,,0.24,0.05,0.76,-2,-8,4,0,2820,200,,,,,,,,,,,,,,,
2655134,1501038757671,,,,,,,,,0,2790,200,,,,,,,,,,,,,,,
2655144,1501038757681,,,,,,,,,0,2790,200,36.11367,-115.145714,11.51,5.627,2035.5,9,3,1.8,0,0.0,-1,0.0,0.0,0.0,0
2655154,1501038757691,,,,,,,,,0,2715,200,,,,,,,,,,,,,,,
2655164,1501038757701,3.18,,0.3,-0.05,0.68,-2,-8,2,0,2805,200,,,,,,,,,,,,,,,
2655174,1501038757711,,,,,,,,,0,2835,200,,,,,,,,,,,,,,,
2655184,1501038757721,,,,,,,,,0,2775,200,,,,,,,,,,,,,,,
2655194,1501038757731,,,,,,,,,0,2715,200,,,,,,,,,,,,,,,
2655204,1501038757741,3.2,,0.29,-0.06,0.81,-2,-3,4,0,2655,210,,,,,,,,,,,,,,,
2655214,1501038757751,,,,,,,,,0,2835,210,,,,,,,,,,,,,,,
2655224,1501038757761,,,,,,,,,0,2775,210,,,,,,,,,,,,,,,
2655234,1501038757771,,,,,,,,,0,2745,210,,,,,,,,,,,,,,,
2655244,1501038757781,3.18,,0.3,-0.03,0.96,-1,1,3,0,2655,210,36.11367,-115.145729,12.22,5.628,2035.4,9,3,1.8,0,0.0,-1,0.0,0.0,0.0,0
2655254,1501038757793,,,,,,,,,0,2850,210,,,,,,,,,,,,,,,
2655264,1501038757803,,,,,,,,,0,2805,210,,,,,,,,,,,,,,,
2655274,1501038757813,,,,,,,,,0,2790,210,,,,,,,,,,,,,,,
2655284,1501038757823,3.11,,0.33,-0.05,1.11,-1,0,-2,0,2715,210,,,,,,,,,,,,,,,
2655294,1501038757833,,,,,,,,,0,2790,210,,,,,,,,,,,,,,,
2655304,1501038757843,,,,,,,,,0,2820,210,,,,,,,,,,,,,,,
2655314,1501038757853,,,,,,,,,0,2775,210,,,,,,,,,,,,,,,
2655324,1501038757863,3.16,,0.32,-0.03,0.99,-2,-3,-1,0,2700,210,,,,,,,,,,,,,,,
2655334,1501038757873,,,,,,,,,0,2655,210,,,,,,,,,,,,,,,
2655344,1501038757883,,,,,,,,,0,2880,210,36.11367,-115.145729,12.44,5.628,2035.3,9,3,1.8,0,0.0,-1,0.0,0.0,0.0,0
2655354,1501038757893,,,,,,,,,0,2805,210,,,,,,,,,,,,,,,
2655364,1501038757903,3.18,,0.27,0.08,0.75,-2,-6,3,0,2730,210,,,,,,,,,,,,,,,
2655374,1501038757913,,,,,,,,,0,2655,210,,,,,,,,,,,,,,,
2655384,1501038757923,,,,,,,,,0,2820,220,,,,,,,,,,,,,,,
2655394,1501038757933,,,,,,,,,0,2790,220,,,,,,,,,,,,,,,
2655404,1501038757943,3.16,,0.32,-0.02,0.67,-2,-12,2,0,2790,220,,,,,,,,,,,,,,,
2655414,1501038757953,,,,,,,,,0,2700,220,,,,,,,,,,,,,,,
2655424,1501038757963,,,,,,,,,0,2820,220,,,,,,,,,,,,,,,
2655434,1501038757973,,,,,,,,,0,2820,220,,,,,,,,,,,,,,,
2655444,1501038757983,3.13,,0.36,-0.1,0.67,-4,-10,2,0,2790,220,36.11367,-115.145744,12.89,5.628,2035.0,9,3,1.8,0,0.0,-1,0.0,0.0,0.0,0
2655454,1501038757993,,,,,,,,,0,2715,220,,,,,,,,,,,,,,,
2655464,1501038757991,,,,,,,,,0,2655,220,,,,,,,,,,,,,,,
2655474,1501038758001,,,,,,,,,0,2835,230,,,,,,,,,,,,,,,
2655484,1501038758011,3.15,,0.31,-0.01,0.78,-3,-4,2,0,2790,230,,,,,,,,,,,,,,,
2655494,1501038758021,,,,,,,,,0,2745,230,,,,,,,,,,,,,,,
2655504,1501038758031,,,,,,,,,0,2655,230,,,,,,,,,,,,,,,
2655514,1501038758041,,,,,,,,,0,2865,230,,,,,,,,,,,,,,,
2655524,1501038758051,3.13,,0.3,-0.02,1.01,-3,-2,1,0,2790,230,,,,,,,,,,,,,,,
2655534,1501038758061,,,,,,,,,0,2775,230,,,,,,,,,,,,,,,
2655544,1501038758071,,,,,,,,,0,2700,230,36.11367,-115.145744,13.54,5.629,2035.0,9,3,1.8,0,0.0,-1,0.0,0.0,0.0,0
2655554,1501038758091,,,,,,,,,0,2790,230,,,,,,,,,,,,,,,
2655564,1501038758101,3.2,,0.28,-0.0,1.02,-4,-1,3,0,2790,230,,,,,,,,,,,,,,,
2655574,1501038758111,,,,,,,,,0,2775,230,,,,,,,,,,,,,,,
2655584,1501038758121,,,,,,,,,0,2700,230,,,,,,,,,,,,,,,
2655594,1501038758131,,,,,,,,,0,2655,230,,,,,,,,,,,,,,,
2655604,1501038758141,3.21,,0.3,0.05,0.92,-4,-5,3,0,2820,230,,,,,,,,,,,,,,,
2655614,1501038758151,,,,,,,,,0,2790,230,,,,,,,,,,,,,,,
2655624,1501038758161,,,,,,,,,0,2715,230,,,,,,,,,,,,,,,
2655634,1501038758171,,,,,,,,,0,2640,230,,,,,,,,,,,,,,,
2655644,1501038758181,3.15,,0.26,0.06,0.69,-4,-10,4,0,2820,230,36.11367,-115.145752,14.08,5.629,2034.9,9,3,1.8,0,0.0,-1,0.0,0.0,0.0,0
2655654,1501038758193,,,,,,,,,0,2775,230,,,,,,,,,,,,,,,
2655664,1501038758203,,,,,,,,,0,2790,230,,,,,,,,,,,,,,,
2655674,1501038758213,,,,,,,,,0,2715,230,,,,,,,,,,,,,,,
2655684,1501038758223,3.15,,0.28,0.01,0.6,-4,-9,4,0,2805,240,,,,,,,,,,,,,,,
2655694,1501038758233,,,,,,,,,0,2805,240,,,,,,,,,,,,,,,
2655704,1501038758243,,,,,,,,,0,2790,240,,,,,,,,,,,,,,,
2655714,1501038758253,,,,,,,,,0,2700,240,,,,,,,,,,,,,,,
2655724,1501038758263,3.2,,0.31,-0.04,0.66,-4,-5,6,0,2655,250,,,,,,,,,,,,,,,
2655734,1501038758273,,,,,,,,,0,2820,250,,,,,,,,,,,,,,,
2655744,1501038758283,,,,,,,,,0,2775,250,36.11367,-115.145752,14.39,5.629,2034.8,9,3,1.8,0,0.0,-1,0.0,0.0,0.0,0
2655754,1501038758292,,,,,,,,,0,2715,250,,,,,,,,,,,,,,,
2655764,1501038758302,3.18,,0.27,-0.03,0.9,-3,-2,4,0,2625,250,,,,,,,,,,,,,,,
2655774,1501038758312,,,,,,,,,0,2805,250,,,,,,,,,,,,,,,
2655784,1501038758322,,,,,,,,,0,2790,250,,,,,,,,,,,,,,,
2655794,1501038758332,,,,,,,,,0,2775,250,,,,,,,,,,,,,,,
2655804,1501038758342,3.15,,0.26,-0.03,1.05,-4,-1,3,0,2685,250,,,,,,,,,,,,,,,
2655814,1501038758352,,,,,,,,,0,2790,250,,,,,,,,,,,,,,,
2655824,1501038758362,,,,,,,,,0,2790,250,,,,,,,,,,,,,,,
2655834,1501038758372,,,,,,,,,0,2760,250,,,,,,,,,,,,,,,
2655844,1501038758382,3.18,,0.25,0.0,1.0,-4,-4,6,0,2700,250,36.11367,-115.145767,14.52,5.63,2034.5,9,3,1.8,0,0.0,-1,0.0,0.0,0.0,0
2655854,1501038758392,,,,,,,,,0,2625,250,,,,,,,,,,,,,,,
2655864,1501038758402,,,,,,,,,0,2805,250,,,,,,,,,,,,,,,
2655874,1501038758412,,,,,,,,,0,2745,250,,,,,,,,,,,,,,,
2655884,1501038758422,3.2,,0.21,0.07,0.88,-4,-8,7,0,2700,250,,,,,,,,,,,,,,,
2655894,1501038758432,,,,,,,,,0,2670,250,,,,,,,,,,,,,,,
2655904,1501038758442,,,,,,,,,0,2775,250,,,,,,,,,,,,,,,
2655914,1501038758452,,,,,,,,,0,2790,250,,,,,,,,,,,,,,,
2655924,1501038758462,3.19,,0.28,-0.05,0.76,-5,-11,5,0,2760,250,,,,,,,,,,,,,,,
2655934,1501038758472,,,,,,,,,0,2685,250,,,,,,,,,,,,,,,
2655944,1501038758482,,,,,,,,,0,2775,250,36.11367,-115.145767,14.84,5.63,2034.2,9,3,1.8,0,0.0,-1,0.0,0.0,0.0,0
2655954,1501038758492,,,,,,,,,0,2805,260,,,,,,,,,,,,,,,
2655964,1501038758502,3.14,,0.25,-0.12,0.73,-3,-5,5,0,2745,260,,,,,,,,,,,,,,,
2655974,1501038758512,,,,,,,,,0,2715,260,,,,,,,,,,,,,,,
2655984,1501038758522,,,,,,,,,0,2625,260,,,,,,,,,,,,,,,
2655994,1501038758532,,,,,,,,,0,2805,260,,,,,,,,,,,,,,,
2656004,1501038758542,3.17,,0.22,-0.08,0.96,-2,-1,4,0,2745,260,,,,,,,,,,,,,,,
2656014,1501038758552,,,,,,,,,0,2745,260,,,,,,,,,,,,,,,
2656024,1501038758562,,,,,,,,,0,2670,260,,,,,,,,,,,,,,,
2656034,1501038758572,,,,,,,,,0,2760,260,,,,,,,,,,,,,,,
2656044,1501038758582,3.16,4.52,0.22,-0.05,1.12,-4,-1,5,0,2775,260,36.11367,-115.145782,15.47,5.631,2034.0,9,3,1.8,0,0.0,-1,0.0,0.0,0.0,0
2656054,1501038758592,,,,,,,,,0,2730,260,,,,,,,,,,,,,,,
2656064,1501038758602,,,,,,,,,0,2670,260,,,,,,,,,,,,,,,
2656074,1501038758612,,,,,,,,,0,2610,260,,,,,,,,,,,,,,,
2656084,1501038758622,3.2,,0.2,-0.02,0.93,-3,-4,4,0,2805,260,,,,,,,,,,,,,,,
2656094,1501038758632,,,,,,,,,0,2745,260,,,,,,,,,,,,,,,
2656104,1501038758642,,,,,,,,,0,2730,270,,,,,,,,,,,,,,,
2656114,1501038758652,,,,,,,,,0,2610,270,,,,,,,,,,,,,,,
2656124,1501038758662,3.11,,0.2,-0.03,0.76,-4,-8,6,0,2805,270,,,,,,,,,,,,,,,
2656134,1501038758672,,,,,,,,,0,2775,270,,,,,,,,,,,,,,,
2656144,1501038758682,,,,,,,,,0,2760,260,36.113667,-115.14579,15.66,5.631,2033.8,9,3,1.8,0,0.0,-1,0.0,0.0,0.0,0
2656154,1501038758692,,,,,,,,,0,2655,260,,,,,,,,,,,,,,,
2656164,1501038758702,3.17,,0.24,-0.08,0.75,-4,-7,6,0,2775,260,,,,,,,,,,,,,,,
2656174,1501038758712,,,,,,,,,0,2775,270,,,,,,,,,,,,,,,
2656184,1501038758722,,,,,,,,,0,2760,270,,,,,,,,,,,,,,,
2656194,1501038758732,,,,,,,,,0,2730,270,,,,,,,,,,,,,,,
2656204,1501038758742,3.14,,0.23,-0.16,0.79,-3,-3,6,0,2640,270,,,,,,,,,,,,,,,
2656214,1501038758752,,,,,,,,,0,2820,270,,,,,,,,,,,,,,,
2656224,1501038758762,,,,,,,,,0,2760,270,,,,,,,,,,,,,,,
2656234,1501038758772,,,,,,,,,0,2700,270,,,,,,,,,,,,,,,
2656244,1501038758782,3.14,,0.21,-0.11,0.95,-2,0,3,0,2670,270,36.113667,-115.14579,15.95,5.632,2033.6,9,3,1.8,0,0.0,-1,0.0,0.0,0.0,0
2656254,1501038758792,,,,,,,,,0,2775,270,,,,,,,,,,,,,,,
2656264,1501038758802,,,,,,,,,0,2775,270,,,,,,,,,,,,,,,
2656274,1501038758812,,,,,,,,,0,2745,270,,,,,,,,,,,,,,,
2656284,1501038758822,3.22,,0.2,-0.04,1.01,-3,-0,5,0,2670,270,,,,,,,,,,,,,,,
2656294,1501038758832,,,,,,,,,0,2760,270,,,,,,,,,,,,,,,
2656304,1501038758842,,,,,,,,,0,2790,270,,,,,,,,,,,,,,,
2656314,1501038758852,,,,,,,,,0,2745,270,,,,,,,,,,,,,,,
2656324,1501038758862,3.21,,0.21,0.01,0.92,-3,-5,6,0,2685,270,,,,,,,,,,,,,,,
2656334,1501038758872,,,,,,,,,0,2610,270,,,,,,,,,,,,,,,
2656344,1501038758882,,,,,,,,,0,2775,270,36.113667,-115.145805,16.2,5.632,2033.4,9,3,1.8,0,0.0,-1,0.0,0.0,0.0,0
2656354,1501038758892,,,,,,,,,0,2790,270,,,,,,,,,,,,,,,
2656364,1501038758902,3.22,,0.28,-0.1,0.8,-3,-12,3,0,2760,270,,,,,,,,,,,,,,,
2656374,1501038758912,,,,,,,,,0,2670,270,,,,,,,,,,,,,,,
2656384,1501038758922,,,,,,,,,0,2775,270,,,,,,,,,,,,,,,
2656394,1501038758932,,,,,,,,,0,2805,280,,,,,,,,,,,,,,,
2656404,1501038758942,3.15,,0.25,-0.2,0.79,-3,-9,4,0,2760,280,,,,,,,,,,,,,,,
2656414,1501038758952,,,,,,,,,0,2700,280,,,,,,,,,,,,,,,
2656424,1501038758962,,,,,,,,,0,2625,280,,,,,,,,,,,,,,,
2656434,1501038758972,,,,,,,,,0,2820,280,,,,,,,,,,,,,,,
2656444,1501038758982,3.17,,0.2,-0.15,1.0,-1,-3,2,0,2745,280,36.113667,-115.145805,16.64,5.632,2033.3,9,3,1.8,0,0.0,-1,0.0,0.0,0.0,0
2656454,1501038758992,,,,,,,,,0,2715,280,,,,,,,,,,,,,,,
2656464,1501038758996,,,,,,,,,0,2610,280,,,,,,,,,,,,,,,
2656474,1501038759006,,,,,,,,,0,2775,280,,,,,,,,,,,,,,,
2656484,1501038759016,3.22,,0.19,-0.08,1.19,-2,0,1,0,2790,280,,,,,,,,,,,,,,,
2656494,1501038759026,,,,,,,,,0,2745,280,,,,,,,,,,,,,,,
2656504,1501038759036,,,,,,,,,0,2670,280,,,,,,,,,,,,,,,
2656514,1501038759046,,,,,,,,,0,2745,280,,,,,,,,,,,,,,,
2656524,1501038759056,3.15,,0.19,-0.04,1.17,-1,-3,0,0,2775,280,,,,,,,,,,,,,,,
2656534,1501038759066,,,,,,,,,0,2745,290,,,,,,,,,,,,,,,
2656544,1501038759076,,,,,,,,,0,2700,290,36.113667,-115.145821,17.0,5.633,2033.1,9,3,1.8,0,0.0,-1,0.0,0.0,0.0,0
2656554,1501038759092,,,,,,,,,0,2610,290,,,,,,,,,,,,,,,
2656564,1501038759102,3.18,,0.17,-0.02,0.95,-1,-9,1,0,2790,280,,,,,,,,,,,,,,,
2656574,1501038759112,,,,,,,,,0,2730,280,,,,,,,,,,,,,,,
2656584,1501038759122,,,,,,,,,0,2760,280,,,,,,,,,,,,,,,
2656594,1501038759132,,,,,,,,,0,2670,280,,,,,,,,,,,,,,,
2656604,1501038759142,3.19,,0.22,-0.03,0.74,-1,-9,3,0,2775,290,,,,,,,,,,,,,,,
2656614,1501038759152,,,,,,,,,0,2790,290,,,,,,,,,,,,,,,
2656624,1501038759162,,,,,,,,,0,2745,290,,,,,,,,,,,,,,,
2656634,1501038759172,,,,,,,,,0,2700,290,,,,,,,,,,,,,,,
2656644,1501038759182,3.22,,0.22,-0.03,0.88,-1,-4,5,0,2610,290,36.113667,-115.145828,17.38,5.633,2032.6,9,3,1.8,0,0.0,-1,0.0,0.0,0.0,0
2656654,1501038759192,,,,,,,,,0,2790,290,,,,,,,,,,,,,,,
2656664,1501038759202,,,,,,,,,0,2745,290,,,,,,,,,,,,,,,
2656674,1501038759212,,,,,,,,,0,2700,290,,,,,,,,,,,,,,,
2656684,1501038759222,3.19,,0.15,0.0,1.08,0,-0,6,0,2610,290,,,,,,,,,,,,,,,
2656694,1501038759232,,,,,,,,,0,2760,290,,,,,,,,,,,,,,,
2656704,1501038759242,,,,,,,,,0,2790,290,,,,,,,,,,,,,,,
2656714,1501038759252,,,,,,,,,0,2745,290,,,,,,,,,,,,,,,
2656724,1501038759262,3.21,,0.18,-0.0,1.13,-0,-0,4,0,2670,290,,,,,,,,,,,,,,,
2656734,1501038759272,,,,,,,,,0,2775,290,,,,,,,,,,,,,,,
2656744,1501038759282,,,,,,,,,0,2775,290,36.113663,-115.145844,18.04,5.634,2032.6,9,3,1.8,0,0.0,-1,0.0,0.0,0.0,0
2656754,1501038759293,,,,,,,,,0,2745,290,,,,,,,,,,,,,,,
2656764,1501038759303,3.17,,0.14,0.06,1.01,-2,-3,5,0,2700,290,,,,,,,,,,,,,,,
2656774,1501038759313,,,,,,,,,0,2610,290,,,,,,,,,,,,,,,
2656784,1501038759323,,,,,,,,,0,2790,290,,,,,,,,,,,,,,,
2656794,1501038759333,,,,,,,,,0,2760,290,,,,,,,,,,,,,,,
2656804,1501038759343,3.22,,0.16,0.04,0.75,-1,-8,5,0,2745,300,,,,,,,,,,,,,,,
2656814,1501038759353,,,,,,,,,0,2685,300,,,,,,,,,,,,,,,
2656824,1501038759363,,,,,,,,,0,2790,300,,,,,,,,,,,,,,,
2656834,1501038759373,,,,,,,,,0,2805,300,,,,,,,,,,,,,,,
2656844,1501038759383,3.2,,0.23,-0.01,0.74,-1,-8,5,0,2775,300,36.113663,-115.145844,18.35,5.634,2032.5,9,3,1.8,0,0.0,-1,0.0,0.0,0.0,0
2656854,1501038759393,,,,,,,,,0,2685,300,,,,,,,,,,,,,,,
2656864,1501038759403,,,,,,,,,0,2625,300,,,,,,,,,,,,,,,
2656874,1501038759413,,,,,,,,,0,2805,300,,,,,,,,,,,,,,,
2656884,1501038759423,3.19,,0.11,0.01,0.94,1,-2,5,0,2760,300,,,,,,,,,,,,,,,
2656894,1501038759433,,,,,,,,,0,2715,300,,,,,,,,,,,,,,,
2656904,1501038759443,,,,,,,,,0,2610,300,,,,,,,,,,,,,,,
2656914,1501038759453,,,,,,,,,0,2790,300,,,,,,,,,,,,,,,
2656924,1501038759463,3.17,,0.12,0.09,1.12,1,-1,2,0,2775,300,,,,,,,,,,,,,,,
2656934,1501038759473,,,,,,,,,0,2745,300,,,,,,,,,,,,,,,
2656944,1501038759483,,,,,,,,,0,2670,300,36.113663,-115.145859,18.9,5.635,2032.5,9,3,1.8,0,0.0,-1,0.0,0.0,0.0,0
2656954,1501038759491,,,,,,,,,0,2760,300,,,,,,,,,,,,,,,
2656964,1501038759501,3.23,,0.12,0.11,1.06,-0,-2,4,0,2790,300,,,,,,,,,,,,,,,
2656974,1501038759511,,,,,,,,,0,2760,300,,,,,,,,,,,,,,,
2656984,1501038759521,,,,,,,,,0,2700,300,,,,,,,,,,,,,,,
2656994,1501038759531,,,,,,,,,0,2625,310,,,,,,,,,,,,,,,
2657004,1501038759541,3.22,,0.13,0.11,0.87,-1,-7,4,0,2805,310,,,,,,,,,,,,,,,
2657014,1501038759551,,,,,,,,,0,2760,310,,,,,,,,,,,,,,,
2657024,1501038759561,,,,,,,,,0,2700,310,,,,,,,,,,,,,,,
2657034,1501038759571,,,,,,,,,0,2685,310,,,,,,,,,,,,,,,
2657044,1501038759581,3.2,4.51,0.17,0.04,0.72,0,-10,6,0,2775,310,36.113663,-115.145866,19.13,5.635,2032.3,9,3,1.8,0,0.0,-1,0.0,0.0,0.0,0
2657054,1501038759593,,,,,,,,,0,2790,310,,,,,,,,,,,,,,,
2657064,1501038759603,,,,,,,,,0,2760,310,,,,,,,,,,,,,,,
2657074,1501038759613,,,,,,,,,0,2670,310,,,,,,,,,,,,,,,
2657084,1501038759623,3.17,,0.18,-0.04,0.72,1,-6,4,0,2790,310,,,,,,,,,,,,,,,
2657094,1501038759633,,,,,,,,,0,2790,310,,,,,,,,,,,,,,,
2657104,1501038759643,,,,,,,,,0,2760,310,,,,,,,,,,,,,,,
2657114,1501038759653,,,,,,,,,0,2700,310,,,,,,,,,,,,,,,
2657124,1501038759663,3.26,,0.07,-0.02,0.88,2,1,4,0,2625,310,,,,,,,,,,,,,,,
2657134,1501038759673,,,,,,,,,0,2805,310,,,,,,,,,,,,,,,
2657144,1501038759683,,,,,,,,,0,2745,310,36.113663,-115.145882,19.01,5.636,2032.2,9,3,1.8,0,0.0,-1,0.0,0.0,0.0,0
2657154,1501038759693,,,,,,,,,0,2760,310,,,,,,,,,,,,,,,
2657164,1501038759703,3.24,,0.12,-0.01,1.05,1,2,0,0,2685,310,,,,,,,,,,,,,,,
2657174,1501038759713,,,,,,,,,0,2790,310,,,,,,,,,,,,,,,
2657184,1501038759723,,,,,,,,,0,2805,310,,,,,,,,,,,,,,,
2657194,1501038759733,,,,,,,,,0,2775,310,,,,,,,,,,,,,,,
2657204,1501038759743,3.18,,0.11,0.01,1.06,1,1,-1,0,2700,310,,,,,,,,,,,,,,,
2657214,1501038759753,,,,,,,,,0,2640,310,,,,,,,,,,,,,,,
2657224,1501038759763,,,,,,,,,0,2805,320,,,,,,,,,,,,,,,
2657234,1501038759773,,,,,,,,,0,2775,320,,,,,,,,,,,,,,,
2657244,1501038759783,3.19,,0.1,0.0,0.92,1,-4,0,0,2730,320,36.113663,-115.145882,19.19,5.637,2032.0,9,3,1.8,0,0.0,-1,0.0,0.0,0.0,0
2657254,1501038759793,,,,,,,,,0,2640,310,,,,,,,,,,,,,,,
2657264,1501038759803,,,,,,,,,0,2820,310,,,,,,,,,,,,,,,
2657274,1501038759813,,,,,,,,,0,2775,310,,,,,,,,,,,,,,,
2657284,1501038759823,3.22,,0.18,-0.02,0.81,1,-11,-2,0,2775,310,,,,,,,,,,,,,,,
2657294,1501038759833,,,,,,,,,0,2700,310,,,,,,,,,,,,,,,
2657304,1501038759843,,,,,,,,,0,2790,310,,,,,,,,,,,,,,,
2657314,1501038759853,,,,,,,,,0,2805,310,,,,,,,,,,,,,,,
2657324,1501038759863,3.2,,0.23,-0.07,0.78,1,-9,-1,0,2775,310,,,,,,,,,,,,,,,
2657334,1501038759873,,,,,,,,,0,2700,310,,,,,,,,,,,,,,,
2657344,1501038759883,,,,,,,,,0,2655,310,36.113663,-115.145897,19.56,5.637,2031.8,9,3,1.8,0,0.0,-1,0.0,0.0,0.0,0
2657354,1501038759893,,,,,,,,,0,2850,310,,,,,,,,,,,,,,,
2657364,1501038759903,3.14,,0.15,-0.01,0.95,1,-2,1,0,2790,310,,,,,,,,,,,,,,,
2657374,1501038759913,,,,,,,,,0,2745,320,,,,,,,,,,,,,,,
2657384,1501038759923,,,,,,,,,0,2685,320,,,,,,,,,,,,,,,
2657394,1501038759933,,,,,,,,,0,2850,320,,,,,,,,,,,,,,,
2657404,1501038759943,3.18,,0.14,0.01,1.15,0,-2,-0,0,2820,320,,,,,,,,,,,,,,,
2657414,1501038759953,,,,,,,,,0,2820,320,,,,,,,,,,,,,,,
2657424,1501038759963,,,,,,,,,0,2745,320,,,,,,,,,,,,,,,
2657434,1501038759973,,,,,,,,,0,2850,320,,,,,,,,,,,,,,,
2657444,1501038759983,3.19,,0.14,0.03,1.23,-2,0,2,0,2850,320,36.113663,-115.145912,19.63,5.638,2031.7,9,3,1.8,0,0.0,-1,0.0,0.0,0.0,0
2657454,1501038759993,,,,,,,,,0,2835,320,,,,,,,,,,,,,,,
2657464,1501038759997,,,,,,,,,0,2760,320,,,,,,,,,,,,,,,
2657474,1501038760007,,,,,,,,,0,2850,320,,,,,,,,,,,,,,,
2657484,1501038760017,3.19,,0.15,0.02,1.05,-2,-4,1,0,2865,320,,,,,,,,,,,,,,,
2657494,1501038760027,,,,,,,,,0,2820,320,,,,,,,,,,,,,,,
2657504,1501038760037,,,,,,,,,0,2805,320,,,,,,,,,,,,,,,
2657514,1501038760047,,,,,,,,,0,2700,320,,,,,,,,,,,,,,,
2657524,1501038760057,3.18,,0.14,0.01,0.9,-3,-6,3,0,2880,320,,,,,,,,,,,,,,,
2657534,1501038760067,,,,,,,,,0,2850,320,,,,,,,,,,,,,,,
2657544,1501038760077,,,,,,,,,0,2790,320,36.113663,-115.14592,20.09,5.638,2031.7,9,3,1.8,0,0.0,-1,0.0,0.0,0.0,0
2657554,1501038760093,,,,,,,,,0,2730,320,,,,,,,,,,,,,,,
2657564,1501038760103,3.2,,0.14,-0.02,0.75,-3,-10,5,0,2895,320,,,,,,,,,,,,,,,
2657574,1501038760113,,,,,,,,,0,2865,320,,,,,,,,,,,,,,,
2657584,1501038760123,,,,,,,,,0,2805,320,,,,,,,,,,,,,,,
2657594,1501038760133,,,,,,,,,0,2790,330,,,,,,,,,,,,,,,
2657604,1501038760143,3.17,,0.21,-0.1,0.58,-1,-13,3,0,2895,330,,,,,,,,,,,,,,,
2657614,1501038760153,,,,,,,,,0,2895,330,,,,,,,,,,,,,,,
2657624,1501038760163,,,,,,,,,0,2880,330,,,,,,,,,,,,,,,
2657634,1501038760173,,,,,,,,,0,2790,330,,,,,,,,,,,,,,,
2657644,1501038760183,3.16,,0.28,-0.1,0.57,-1,-13,2,0,2895,330,36.113663,-115.14592,20.21,5.639,2031.7,9,3,1.8,0,0.0,-1,0.0,0.0,0.0,0
2657654,1501038760193,,,,,,,,,0,2910,320,,,,,,,,,,,,,,,
2657664,1501038760203,,,,,,,,,0,2880,320,,,,,,,,,,,,,,,
2657674,1501038760213,,,,,,,,,0,2805,320,,,,,,,,,,,,,,,
2657684,1501038760223,3.15,,0.26,-0.03,0.71,-0,-6,3,0,2910,330,,,,,,,,,,,,,,,
2657694,1501038760233,,,,,,,,,0,2910,330,,,,,,,,,,,,,,,
2657704,1501038760243,,,,,,,,,0,2895,330,,,,,,,,,,,,,,,
2657714,1501038760253,,,,,,,,,0,2835,330,,,,,,,,,,,,,,,
2657724,1501038760263,3.25,,0.18,0.04,0.83,1,-1,5,0,2760,330,,,,,,,,,,,,,,,
2657734,1501038760273,,,,,,,,,0,2940,330,,,,,,,,,,,,,,,
2657744,1501038760283,,,,,,,,,0,2910,340,36.113663,-115.145935,20.8,5.639,2032.0,9,3,1.8,0,0.0,-1,0.0,0.0,0.0,0
2657754,1501038760293,,,,,,,,,0,2850,340,,,,,,,,,,,,,,,
2657764,1501038760303,3.15,,0.11,0.09,0.97,2,1,4,0,2805,340,,,,,,,,,,,,,,,
2657774,1501038760313,,,,,,,,,0,2955,330,,,,,,,,,,,,,,,
2657784,1501038760323,,,,,,,,,0,2925,330,,,,,,,,,,,,,,,
2657794,1501038760333,,,,,,,,,0,2865,330,,,,,,,,,,,,,,,
2657804,1501038760343,3.18,,0.12,0.03,1.16,2,2,-1,0,2805,340,,,,,,,,,,,,,,,
2657814,1501038760353,,,,,,,,,0,2955,340,,,,,,,,,,,,,,,
2657824,1501038760363,,,,,,,,,0,2940,330,,,,,,,,,,,,,,,
2657834,1501038760373,,,,,,,,,0,2880,330,,,,,,,,,,,,,,,
2657844,1501038760383,3.17,,0.02,-0.03,1.22,1,3,2,0,2865,330,36.113663,-115.14595,21.02,5.64,2032.1,9,3,1.8,0,0.0,-1,0.0,0.0,0.0,0
2657854,1501038760392,,,,,,,,,0,2850,330,,,,,,,,,,,,,,,
2657864,1501038760402,,,,,,,,,0,2850,330,,,,,,,,,,,,,,,
2657874,1501038760412,,,,,,,,,0,2835,330,,,,,,,,,,,,,,,
2657884,1501038760422,3.14,,-0.03,-0.01,1.21,-1,5,2,0,2760,330,,,,,,,,,,,,,,,
2657894,1501038760432,,,,,,,,,0,2760,320,,,,,,,,,,,,,,,
2657904,1501038760442,,,,,,,,,0,2715,320,,,,,,,,,,,,,,,
2657914,1501038760452,,,,,,,,,0,2685,320,,,,,,,,,,,,,,,
2657924,1501038760462,3.19,,-0.06,-0.0,1.15,-1,4,3,0,2670,320,,,,,,,,,,,,,,,
2657934,1501038760472,,,,,,,,,0,2655,320,,,,,,,,,,,,,,,
2657944,1501038760482,,,,,,,,,0,2625,320,36.113663,-115.145958,21.07,5.64,2032.1,9,3,1.8,0,0.0,-1,0.0,0.0,0.0,0
2657954,1501038760492,,,,,,,,,0,2610,310,,,,,,,,,,,,,,,
2657964,1501038760502,3.16,,-0.09,-0.04,1.0,-2,2,2,0,2595,310,,,,,,,,,,,,,,,
2657974,1501038760512,,,,,,,,,0,2550,310,,,,,,,,,,,,,,,
2657984,1501038760522,,,,,,,,,0,2550,300,,,,,,,,,,,,,,,
2657994,1501038760532,,,,,,,,,0,2535,300,,,,,,,,,,,,,,,
2658004,1501038760542,3.14,,-0.19,-0.05,1.0,-1,5,1,0,2475,300,,,,,,,,,,,,,,,
2658014,1501038760552,,,,,,,,,0,2460,300,,,,,,,,,,,,,,,
2658024,1501038760562,,,,,,,,,0,2460,290,,,,,,,,,,,,,,,
2658034,1501038760572,,,,,,,,,0,2475,290,,,,,,,,,,,,,,,
2658044,1501038760582,3.11,4.51,-0.27,-0.04,1.1,-1,11,2,0,2430,290,36.113663,-115.145973,21.52,5.641,2032.4,9,3,1.8,0,0.0,-1,0.0,0.0,0.0,0
2658054,1501038760592,,,,,,,,,0,2415,290,,,,,,,,,,,,,,,
2658064,1501038760602,,,,,,,,,0,2400,290,,,,,,,,,,,,,,,
2658074,1501038760612,,,,,,,,,0,2400,290,,,,,,,,,,,,,,,
2658084,1501038760622,3.17,,-0.27,-0.03,1.11,-1,11,1,0,2400,280,,,,,,,,,,,,,,,
2658094,1501038760632,,,,,,,,,0,2400,280,,,,,,,,,,,,,,,
2658104,1501038760642,,,,,,,,,0,2370,280,,,,,,,,,,,,,,,
2658114,1501038760652,,,,,,,,,0,2340,280,,,,,,,,,,,,,,,
2658124,1501038760662,3.2,,-0.35,-0.05,1.07,-2,10,2,0,2340,280,,,,,,,,,,,,,,,
2658134,1501038760672,,,,,,,,,0,2355,280,,,,,,,,,,,,,,,
2658144,1501038760682,,,,,,,,,0,2355,280,36.113663,-115.145988,21.21,5.642,2032.5,9,3,1.8,0,0.0,-1,0.0,0.0,0.0,0
2658154,1501038760692,,,,,,,,,0,2325,280,,,,,,,,,,,,,,,
2658164,1501038760702,3.22,,-0.38,-0.03,1.12,-2,10,3,0,2340,280,,,,,,,,,,,,,,,
2658174,1501038760712,,,,,,,,,0,2295,280,,,,,,,,,,,,,,,
2658184,1501038760722,,,,,,,,,0,2280,280,,,,,,,,,,,,,,,
2658194,1501038760732,,,,,,,,,0,2280,270,,,,,,,,,,,,,,,
2658204,1501038760742,3.21,,-0.4,-0.02,1.12,-2,6,3,0,2265,270,,,,,,,,,,,,,,,
2658214,1501038760752,,,,,,,,,0,2265,270,,,,,,,,,,,,,,,
2658224,1501038760762,,,,,,,,,0,2220,270,,,,,,,,,,,,,,,
2658234,1501038760772,,,,,,,,,0,2220,260,,,,,,,,,,,,,,,
2658244,1501038760782,3.23,,-0.4,-0.02,1.07,-2,5,4,0,2250,260,36.113663,-115.145988,20.3,5.642,2032.7,9,3,1.8,0,0.0,-1,0.0,0.0,0.0,0
2658254,1501038760794,,,,,,,,,0,2205,260,,,,,,,,,,,,,,,
2658264,1501038760804,,,,,,,,,0,2205,260,,,,,,,,,,,,,,,
2658274,1501038760814,,,,,,,,,0,2175,260,,,,,,,,,,,,,,,
2658284,1501038760824,3.22,,-0.44,-0.04,1.05,-2,3,4,0,2175,260,,,,,,,,,,,,,,,
2658294,1501038760834,,,,,,,,,0,2175,260,,,,,,,,,,,,,,,
2658304,1501038760844,,,,,,,,,0,2160,260,,,,,,,,,,,,,,,
2658314,1501038760854,,,,,,,,,0,2130,250,,,,,,,,,,,,,,,
2658324,1501038760864,3.24,,-0.46,-0.04,1.04,-4,1,4,0,2145,250,,,,,,,,,,,,,,,
2658334,1501038760874,,,,,,,,,0,2115,250,,,,,,,,,,,,,,,
2658344,1501038760884,,,,,,,,,0,2085,250,36.113663,-115.145996,19.35,5.643,2032.7,9,3,1.8,0,0.0,-1,0.0,0.0,0.0,0
2658354,1501038760894,,,,,,,,,0,2130,250,,,,,,,,,,,,,,,
2658364,1501038760904,3.18,,-0.54,-0.05,1.03,-3,1,4,0,2085,250,,,,,,,,,,,,,,,
2658374,1501038760914,,,,,,,,,0,2055,250,,,,,,,,,,,,,,,
2658384,1501038760924,,,,,,,,,0,2070,250,,,,,,,,,,,,,,,
2658394,1501038760934,,,,,,,,,0,2025,240,,,,,,,,,,,,,,,
2658404,1501038760944,3.21,,-0.53,-0.01,0.99,-3,0,4,0,2010,240,,,,,,,,,,,,,,,
2658414,1501038760954,,,,,,,,,0,2040,240,,,,,,,,,,,,,,,
2658424,1501038760964,,,,,,,,,0,1995,240,,,,,,,,,,,,,,,
2658434,1501038760974,,,,,,,,,0,1965,230,,,,,,,,,,,,,,,
2658444,1501038760984,3.25,,-0.52,-0.02,1.01,-2,0,6,0,1980,230,36.113659,-115.146011,18.47,5.643,2032.7,9,3,1.8,0,0.0,-1,0.0,0.0,0.0,0
2658454,1501038760994,,,,,,,,,0,1920,230,,,,,,,,,,,,,,,
2658464,1501038760996,,,,,,,,,0,1905,230,,,,,,,,,,,,,,,
2658474,1501038761006,,,,,,,,,0,1920,220,,,,,,,,,,,,,,,
2658484,1501038761016,3.25,,-0.56,-0.03,1.0,-2,0,4,0,1905,220,,,,,,,,,,,,,,,
2658494,1501038761026,,,,,,,,,0,1875,220,,,,,,,,,,,,,,,
2658504,1501038761036,,,,,,,,,0,1875,220,,,,,,,,,,,,,,,
2658514,1501038761046,,,,,,,,,0,1845,220,,,,,,,,,,,,,,,
2658524,1501038761056,3.25,,-0.57,-0.04,1.03,-2,-0,5,0,1830,210,,,,,,,,,,,,,,,
2658534,1501038761066,,,,,,,,,0,1830,210,,,,,,,,,,,,,,,
2658544,1501038761076,,,,,,,,,0,1830,210,36.113659,-115.146011,17.44,5.644,2032.8,9,3,1.8,0,0.0,-1,0.0,0.0,0.0,0
2658554,1501038761086,,,,,,,,,0,1800,210,,,,,,,,,,,,,,,
2658564,1501038761100,3.21,,-0.6,-0.08,1.02,-1,-1,4,0,1770,210,,,,,,,,,,,,,,,
2658574,1501038761110,,,,,,,,,0,1770,210,,,,,,,,,,,,,,,
2658584,1501038761120,,,,,,,,,0,1755,210,,,,,,,,,,,,,,,
2658594,1501038761130,,,,,,,,,0,1710,210,,,,,,,,,,,,,,,
2658604,1501038761140,3.23,,-0.6,-0.08,1.01,-0,-1,3,0,1710,210,,,,,,,,,,,,,,,
2658614,1501038761150,,,,,,,,,0,1710,210,,,,,,,,,,,,,,,
2658624,1501038761160,,,,,,,,,0,1680,190,,,,,,,,,,,,,,,
2658634,1501038761170,,,,,,,,,0,1665,190,,,,,,,,,,,,,,,
2658644,1501038761180,3.23,,-0.62,-0.06,1.06,-1,-2,4,0,1665,190,36.113659,-115.146027,16.05,5.644,2033.0,9,3,1.8,0,0.0,-1,0.0,0.0,0.0,0
2658654,1501038761192,,,,,,,,,0,1620,190,,,,,,,,,,,,,,,
2658664,1501038761202,,,,,,,,,0,1605,190,,,,,,,,,,,,,,,
2658674,1501038761212,,,,,,,,,0,1605,190,,,,,,,,,,,,,,,
2658684,1501038761222,3.23,,-0.63,-0.12,1.07,-1,-3,4,0,1605,190,,,,,,,,,,,,,,,
2658694,1501038761232,,,,,,,,,0,1605,190,,,,,,,,,,,,,,,
2658704,1501038761242,,,,,,,,,0,1560,190,,,,,,,,,,,,,,,
2658714,1501038761252,,,,,,,,,0,1545,190,,,,,,,,,,,,,,,
2658724,1501038761262,3.17,,-0.65,-0.06,1.01,-0,-3,4,0,1515,190,,,,,,,,,,,,,,,
2658734,1501038761272,,,,,,,,,0,1500,170,,,,,,,,,,,,,,,
2658744,1501038761282,,,,,,,,,0,1485,170,36.113659,-115.146034,15.04,5.645,2033.3,9,3,1.8,0,0.0,-1,0.0,0.0,0.0,0
2658754,1501038761293,,,,,,,,,0,1500,170,,,,,,,,,,,,,,,
2658764,1501038761303,3.19,,-0.66,-0.05,1.0,-0,-4,4,0,1485,170,,,,,,,,,,,,,,,
2658774,1501038761313,,,,,,,,,0,1485,170,,,,,,,,,,,,,,,
2658784,1501038761323,,,,,,,,,0,1470,170,,,,,,,,,,,,,,,
2658794,1501038761333,,,,,,,,,0,1440,150,,,,,,,,,,,,,,,
2658804,1501038761343,3.25,,-0.66,-0.08,1.0,-0,-4,4,0,1440,150,,,,,,,,,,,,,,,
2658814,1501038761353,,,,,,,,,0,1410,150,,,,,,,,,,,,,,,
2658824,1501038761363,,,,,,,,,0,1395,150,,,,,,,,,,,,,,,
2658834,1501038761373,,,,,,,,,0,1395,150,,,,,,,,,,,,,,,
2658844,1501038761383,3.21,,-0.68,-0.12,1.03,-1,-4,5,0,1410,150,36.113659,-115.146034,13.45,5.645,2033.5,9,3,1.8,0,0.0,-1,0.0,0.0,0.0,0
2658854,1501038761391,,,,,,,,,0,1425,150,,,,,,,,,,,,,,,
2658864,1501038761401,,,,,,,,,0,1395,150,,,,,,,,,,,,,,,
2658874,1501038761411,,,,,,,,,0,1380,150,,,,,,,,,,,,,,,
2658884,1501038761421,3.22,,-0.67,-0.16,1.04,-1,-5,4,0,1365,150,,,,,,,,,,,,,,,
2658894,1501038761431,,,,,,,,,0,1335,150,,,,,,,,,,,,,,,
2658904,1501038761441,,,,,,,,,0,1320,150,,,,,,,,,,,,,,,
2658914,1501038761451,,,,,,,,,0,1320,150,,,,,,,,,,,,,,,
2658924,1501038761461,3.19,,-0.69,-0.1,1.06,-1,-5,4,0,1305,150,,,,,,,,,,,,,,,
2658934,1501038761471,,,,,,,,,0,1350,130,,,,,,,,,,,,,,,
2658944,1501038761481,,,,,,,,,0,1365,130,36.113659,-115.14605,12.02,5.645,2033.7,9,3,1.8,0,0.0,-1,0.0,0.0,0.0,0
2658954,1501038761491,,,,,,,,,0,1335,130,,,,,,,,,,,,,,,
2658964,1501038761501,3.24,,-0.68,-0.05,1.05,-1,-5,4,0,1305,130,,,,,,,,,,,,,,,
2658974,1501038761511,,,,,,,,,0,1290,130,,,,,,,,,,,,,,,
2658984,1501038761521,,,,,,,,,0,1260,130,,,,,,,,,,,,,,,
2658994,1501038761531,,,,,,,,,0,1260,130,,,,,,,,,,,,,,,
2659004,1501038761541,3.21,,-0.7,-0.04,1.02,-2,-3,5,0,1245,130,,,,,,,,,,,,,,,
2659014,1501038761551,,,,,,,,,0,1230,120,,,,,,,,,,,,,,,
2659024,1501038761561,,,,,,,,,0,1305,120,,,,,,,,,,,,,,,
2659034,1501038761571,,,,,,,,,0,1335,120,,,,,,,,,,,,,,,
2659044,1501038761581,3.23,4.52,-0.67,-0.08,1.15,-1,-4,6,0,1305,120,36.113659,-115.14605,10.5,5.646,2033.9,9,3,1.8,0,0.0,-1,0.0,0.0,0.0,0
2659054,1501038761591,,,,,,,,,0,1275,120,,,,,,,,,,,,,,,
2659064,1501038761601,,,,,,,,,0,1275,120,,,,,,,,,,,,,,,
2659074,1501038761611,,,,,,,,,0,1275,120,,,,,,,,,,,,,,,
2659084,1501038761621,3.2,,-0.65,-0.05,1.11,-1,-4,5,0,1215,120,,,,,,,,,,,,,,,
2659094,1501038761631,,,,,,,,,0,1200,120,,,,,,,,,,,,,,,
2659104,1501038761641,,,,,,,,,0,1155,1770,,,,,,,,,,,,,,,
2659114,1501038761651,,,,,,,,,0,1305,1770,,,,,,,,,,,,,,,
2659124,1501038761661,3.25,,-0.65,-0.05,1.07,-0,-6,4,0,1305,1770,,,,,,,,,,,,,,,
2659134,1501038761671,,,,,,,,,0,1350,1770,,,,,,,,,,,,,,,
2659144,1501038761681,,,,,,,,,0,1335,1770,36.113659,-115.14605,9.19,5.646,2033.9,9,3,1.8,0,0.0,-1,0.0,0.0,0.0,0
2659154,1501038761693,,,,,,,,,0,1290,1770,,,,,,,,,,,,,,,
2659164,1501038761703,3.26,,-0.62,-0.0,1.0,-0,-5,3,0,1290,1770,,,,,,,,,,,,,,,
2659174,1501038761713,,,,,,,,,0,1230,1770,,,,,,,,,,,,,,,
2659184,1501038761723,,,,,,,,,0,1230,1770,,,,,,,,,,,,,,,
2659194,1501038761733,,,,,,,,,0,1215,1770,,,,,,,,,,,,,,,
2659204,1501038761743,3.19,,-0.58,0.01,0.91,-0,-6,3,0,1125,1770,,,,,,,,,,,,,,,
2659214,1501038761753,,,,,,,,,0,1350,560,,,,,,,,,,,,,,,
2659224,1501038761763,,,,,,,,,0,1455,560,,,,,,,,,,,,,,,
2659234,1501038761773,,,,,,,,,0,1440,560,,,,,,,,,,,,,,,
2659244,1501038761783,3.25,,-0.54,-0.0,0.84,-1,-8,2,0,1410,560,36.113659,-115.146065,7.99,5.646,2034.0,9,3,1.8,0,0.0,-1,0.0,0.0,0.0,0
2659254,1501038761793,,,,,,,,,0,1395,560,,,,,,,,,,,,,,,
2659264,1501038761803,,,,,,,,,0,1365,560,,,,,,,,,,,,,,,
2659274,1501038761813,,,,,,,,,0,1320,560,,,,,,,,,,,,,,,
2659284,1501038761823,3.2,,-0.52,0.03,0.92,-1,-9,2,0,1230,560,,,,,,,,,,,,,,,
2659294,1501038761833,,,,,,,,,0,1470,560,,,,,,,,,,,,,,,
2659304,1501038761843,,,,,,,,,0,1545,560,,,,,,,,,,,,,,,
2659314,1501038761853,,,,,,,,,0,1530,480,,,,,,,,,,,,,,,
2659324,1501038761863,3.23,,-0.43,-0.0,0.91,-1,-10,0,0,1470,480,,,,,,,,,,,,,,,
2659334,1501038761873,,,,,,,,,0,1425,480,,,,,,,,,,,,,,,
2659344,1501038761883,,,,,,,,,0,1425,480,36.113659,-115.146065,6.93,5.646,2034.1,9,3,1.8,0,0.0,-1,0.0,0.0,0.0,0
2659354,1501038761891,,,,,,,,,0,1380,480,,,,,,,,,,,,,,,
2659364,1501038761901,3.27,,-0.41,-0.03,0.91,-2,-12,2,0,1320,480,,,,,,,,,,,,,,,
2659374,1501038761911,,,,,,,,,0,1215,480,,,,,,,,,,,,,,,
2659384,1501038761921,,,,,,,,,0,1425,480,,,,,,,,,,,,,,,
2659394,1501038761931,,,,,,,,,0,1515,480,,,,,,,,,,,,,,,
2659404,1501038761941,3.27,,-0.35,-0.07,1.01,-2,-11,3,0,1485,480,,,,,,,,,,,,,,,
2659414,1501038761951,,,,,,,,,0,1440,480,,,,,,,,,,,,,,,
2659424,1501038761961,,,,,,,,,0,1425,0,,,,,,,,,,,,,,,
2659434,1501038761971,,,,,,,,,0,1380,0,,,,,,,,,,,,,,,
2659444,1501038761981,3.25,,-0.34,-0.08,0.99,-1,-9,3,0,1335,240,36.113659,-115.146065,6.04,5.647,2034.3,9,3,1.8,0,0.0,-1,0.0,0.0,0.0,0
2659454,1501038761991,,,,,,,,,0,1230,240,,,,,,,,,,,,,,,
2659464,1501038761995,,,,,,,,,0,1410,240,,,,,,,,,,,,,,,
2659474,1501038762005,,,,,,,,,0,1515,240,,,,,,,,,,,,,,,
2659484,1501038762015,3.24,,-0.29,-0.08,1.03,-2,-9,3,0,1485,240,,,,,,,,,,,,,,,
2659494,1501038762025,,,,,,,,,0,1485,240,,,,,,,,,,,,,,,
2659504,1501038762035,,,,,,,,,0,1455,240,,,,,,,,,,,,,,,
2659514,1501038762045,,,,,,,,,0,1410,240,,,,,,,,,,,,,,,
2659524,1501038762055,3.27,,-0.25,-0.11,1.09,-1,-8,4,0,1380,240,,,,,,,,,,,,,,,
2659534,1501038762065,,,,,,,,,0,1335,240,,,,,,,,,,,,,,,
2659544,1501038762075,,,,,,,,,0,1230,240,36.113659,-115.146065,5.25,5.647,2034.5,9,3,1.8,0,0.0,-1,0.0,0.0,0.0,0
2659554,1501038762091,,,,,,,,,0,1410,240,,,,,,,,,,,,,,,
2659564,1501038762101,3.22,,-0.25,-0.06,0.97,-1,-9,2,0,1515,240,,,,,,,,,,,,,,,
2659574,1501038762111,,,,,,,,,0,1485,240,,,,,,,,,,,,,,,
2659584,1501038762121,,,,,,,,,0,1440,170,,,,,,,,,,,,,,,
2659594,1501038762131,,,,,,,,,0,1410,170,,,,,,,,,,,,,,,
2659604,1501038762141,3.26,,-0.22,-0.03,0.94,-1,-9,2,0,1380,170,,,,,,,,,,,,,,,
2659614,1501038762151,,,,,,,,,0,1320,170,,,,,,,,,,,,,,,
2659624,1501038762161,,,,,,,,,0,1320,170,,,,,,,,,,,,,,,
2659634,1501038762171,,,,,,,,,0,1215,170,,,,,,,,,,,,,,,
2659644,1501038762181,3.24,,-0.24,-0.02,1.02,-1,-8,3,0,1410,170,36.113659,-115.146065,4.88,5.647,2034.9,9,3,1.8,0,0.0,-1,0.0,0.0,0.0,0
2659654,1501038762193,,,,,,,,,0,1500,170,,,,,,,,,,,,,,,
2659664,1501038762203,,,,,,,,,0,1485,170,,,,,,,,,,,,,,,
2659674,1501038762213,,,,,,,,,0,1440,170,,,,,,,,,,,,,,,
2659684,1501038762223,3.25,,-0.23,-0.0,0.99,-2,-8,5,0,1410,10000000,,,,,,,,,,,,,,,
2659694,1501038762233,,,,,,,,,0,1365,0,,,,,,,,,,,,,,,
2659704,1501038762243,,,,,,,,,0,1320,0,,,,,,,,,,,,,,,
2659714,1501038762253,,,,,,,,,0,1200,0,,,,,,,,,,,,,,,
2659724,1501038762263,3.21,,-0.2,-0.04,0.95,-2,-6,7,0,1425,0,,,,,,,,,,,,,,,
2659734,1501038762273,,,,,,,,,0,1530,0,,,,,,,,,,,,,,,
2659744,1501038762283,,,,,,,,,0,1500,130,36.113659,-115.146072,4.54,5.647,2035.4,9,3,1.8,0,0.0,-1,0.0,0.0,0.0,0
2659754,1501038762293,,,,,,,,,0,1455,130,,,,,,,,,,,,,,,
2659764,1501038762300,3.24,,-0.14,-0.02,1.03,-3,-6,9,0,1425,130,,,,,,,,,,,,,,,
2659774,1501038762310,,,,,,,,,0,1365,130,,,,,,,,,,,,,,,
2659784,1501038762320,,,,,,,,,0,1365,130,,,,,,,,,,,,,,,
2659794,1501038762330,,,,,,,,,0,1320,130,,,,,,,,,,,,,,,
2659804,1501038762340,3.24,,-0.17,0.03,0.96,-3,-7,8,0,1200,130,,,,,,,,,,,,,,,
2659814,1501038762350,,,,,,,,,0,1440,130,,,,,,,,,,,,,,,
2659824,1501038762360,,,,,,,,,0,1545,130,,,,,,,,,,,,,,,
2659834,1501038762370,,,,,,,,,0,1515,130,,,,,,,,,,,,,,,
2659844,1501038762380,3.23,,-0.15,-0.02,0.95,-2,-7,8,0,1485,130,36.113659,-115.146072,3.99,5.647,2035.9,9,3,1.8,0,0.0,-1,0.0,0.0,0.0,0
2659854,1501038762392,,,,,,,,,0,1455,10000000,,,,,,,,,,,,,,,
2659864,1501038762402,,,,,,,,,0,1395,0,,,,,,,,,,,,,,,
2659874,1501038762412,,,,,,,,,0,1350,0,,,,,,,,,,,,,,,
2659884,1501038762422,3.19,,-0.12,-0.03,0.94,-2,-7,6,0,1245,0,,,,,,,,,,,,,,,
2659894,1501038762432,,,,,,,,,0,1470,0,,,,,,,,,,,,,,,
2659904,1501038762442,,,,,,,,,0,1560,0,,,,,,,,,,,,,,,
2659914,1501038762452,,,,,,,,,0,1530,0,,,,,,,,,,,,,,,
2659924,1501038762462,3.24,,-0.14,0.02,0.89,-1,-7,5,0,1500,1320,,,,,,,,,,,,,,,
2659934,1501038762472,,,,,,,,,0,1455,1320,,,,,,,,,,,,,,,
2659944,1501038762482,,,,,,,,,0,1410,1320,36.113659,-115.146072,3.48,5.647,2036.4,9,3,1.8,0,0.0,-1,0.0,0.0,0.0,0
2659954,1501038762492,,,,,,,,,0,1350,1320,,,,,,,,,,,,,,,
2659964,1501038762502,3.19,,-0.15,0.03,0.88,-1,-7,3,0,1245,1320,,,,,,,,,,,,,,,
2659974,1501038762512,,,,,,,,,0,1485,1320,,,,,,,,,,,,,,,
2659984,1501038762522,,,,,,,,,0,1575,1320,,,,,,,,,,,,,,,
2659994,1501038762532,,,,,,,,,0,1560,1320,,,,,,,,,,,,,,,
2660004,1501038762542,3.23,,-0.2,0.09,0.84,-1,-4,2,0,1530,1320,,,,,,,,,,,,,,,
2660014,1501038762552,,,,,,,,,0,1500,1320,,,,,,,,,,,,,,,
2660024,1501038762562,,,,,,,,,0,1455,0,,,,,,,,,,,,,,,
2660034,1501038762572,,,,,,,,,0,1455,0,,,,,,,,,,,,,,,
2660044,1501038762582,3.24,4.51,-0.21,0.07,0.95,-1,-3,2,0,1410,0,36.113659,-115.146072,3.52,5.647,2036.7,9,3,1.8,0,0.0,-1,0.0,0.0,0.0,0
2660054,1501038762592,,,,,,,,,0,1530,0,,,,,,,,,,,,,,,
2660064,1501038762602,,,,,,,,,0,1620,0,,,,,,,,,,,,,,,
2660074,1501038762612,,,,,,,,,0,1590,0,,,,,,,,,,,,,,,
2660084,1501038762622,3.24,,-0.18,0.09,0.9,0,-3,-0,0,1545,0,,,,,,,,,,,,,,,
2660094,1501038762632,,,,,,,,,0,1515,0,,,,,,,,,,,,,,,
2660104,1501038762642,,,,,,,,,0,1455,0,,,,,,,,,,,,,,,
2660114,1501038762652,,,,,,,,,0,1455,0,,,,,,,,,,,,,,,
2660124,1501038762662,3.19,,-0.19,0.09,0.94,0,-2,1,0,1410,0,,,,,,,,,,,,,,,
2660134,1501038762672,,,,,,,,,0,1545,0,,,,,,,,,,,,,,,
2660144,1501038762682,,,,,,,,,0,1620,200,36.113659,-115.146072,3.07,5.648,2036.9,9,3,2.0,0,0.0,-1,0.0,0.0,0.0,0
2660154,1501038762692,,,,,,,,,0,1605,200,,,,,,,,,,,,,,,
2660164,1501038762702,3.21,,-0.23,0.1,0.91,0,-2,-1,0,1560,200,,,,,,,,,,,,,,,
2660174,1501038762712,,,,,,,,,0,1545,200,,,,,,,,,,,,,,,
2660184,1501038762722,,,,,,,,,0,1500,200,,,,,,,,,,,,,,,
2660194,1501038762732,,,,,,,,,0,1455,200,,,,,,,,,,,,,,,
2660204,1501038762742,3.24,,-0.24,0.11,0.91,0,-1,-0,0,1365,200,,,,,,,,,,,,,,,
2660214,1501038762752,,,,,,,,,0,1560,200,,,,,,,,,,,,,,,
2660224,1501038762762,,,,,,,,,0,1620,200,,,,,,,,,,,,,,,
2660234,1501038762772,,,,,,,,,0,1620,200,,,,,,,,,,,,,,,
2660244,1501038762782,3.24,,-0.28,0.15,0.82,0,-2,0,0,1575,200,36.113659,-115.146072,2.93,5.648,2037.1,9,3,2.0,0,0.0,-1,0.0,0.0,0.0,0
2660254,1501038762792,,,,,,,,,0,1545,200,,,,,,,,,,,,,,,
2660264,1501038762802,,,,,,,,,0,1500,200,,,,,,,,,,,,,,,
2660274,1501038762812,,,,,,,,,0,1470,200,,,,,,,,,,,,,,,
2660284,1501038762822,3.22,,-0.27,0.13,0.81,0,-4,-2,0,1380,10000000,,,,,,,,,,,,,,,
2660294,1501038762832,,,,,,,,,0,1560,0,,,,,,,,,,,,,,,
2660304,1501038762842,,,,,,,,,0,1635,0,,,,,,,,,,,,,,,
2660314,1501038762852,,,,,,,,,0,1620,0,,,,,,,,,,,,,,,
2660324,1501038762862,3.22,,-0.29,0.16,0.75,-0,-4,-1,0,1575,0,,,,,,,,,,,,,,,
2660334,1501038762872,,,,,,,,,0,1560,0,,,,,,,,,,,,,,,
2660344,1501038762882,,,,,,,,,0,1515,0,36.113659,-115.146088,2.88,5.648,2037.5,9,3,2.0,0,0.0,-1,0.0,0.0,0.0,0
2660354,1501038762892,,,,,,,,,0,1485,0,,,,,,,,,,,,,,,
2660364,1501038762902,3.2,,-0.3,0.12,0.73,-0,-7,-1,0,1395,0,,,,,,,,,,,,,,,
2660374,1501038762912,,,,,,,,,0,1605,0,,,,,,,,,,,,,,,
2660384,1501038762922,,,,,,,,,0,1680,0,,,,,,,,,,,,,,,
2660394,1501038762932,,,,,,,,,0,1665,0,,,,,,,,,,,,,,,
2660404,1501038762942,3.17,,-0.32,0.11,0.7,-1,-7,-0,0,1605,0,,,,,,,,,,,,,,,
2660414,1501038762952,,,,,,,,,0,1575,0,,,,,,,,,,,,,,,
2660424,1501038762962,,,,,,,,,0,1545,0,,,,,,,,,,,,,,,
2660434,1501038762972,,,,,,,,,0,1470,0,,,,,,,,,,,,,,,
2660444,1501038762982,3.22,,-0.32,0.1,0.74,-1,-6,-0,0,1620,0,36.113659,-115.146088,2.15,5.648,2038.1,9,3,1.8,0,0.0,-1,0.0,0.0,0.0,0
2660454,1501038762992,,,,,,,,,0,1650,0,,,,,,,,,,,,,,,
2660464,1501038762998,,,,,,,,,0,1635,0,,,,,,,,,,,,,,,
2660474,1501038763008,,,,,,,,,0,1605,0,,,,,,,,,,,,,,,
2660484,1501038763018,3.22,,-0.31,0.01,0.88,-1,-5,2,0,1590,0,,,,,,,,,,,,,,,
2660494,1501038763028,,,,,,,,,0,1545,0,,,,,,,,,,,,,,,
2660504,1501038763038,,,,,,,,,0,1500,0,,,,,,,,,,,,,,,
2660514,1501038763048,,,,,,,,,0,1440,0,,,,,,,,,,,,,,,
2660524,1501038763058,3.22,,-0.24,-0.04,0.95,-2,-5,4,0,1545,0,,,,,,,,,,,,,,,
2660534,1501038763068,,,,,,,,,0,1590,0,,,,,,,,,,,,,,,
2660544,1501038763078,,,,,,,,,0,1545,0,36.113659,-115.146088,1.51,5.648,2038.4,9,3,1.8,0,0.0,-1,0.0,0.0,0.0,0
2660554,1501038763092,,,,,,,,,0,1515,0,,,,,,,,,,,,,,,
2660564,1501038763102,3.21,,-0.24,-0.08,0.99,-2,-6,3,0,1485,0,,,,,,,,,,,,,,,
2660574,1501038763112,,,,,,,,,0,1440,0,,,,,,,,,,,,,,,
2660584,1501038763122,,,,,,,,,0,1410,0,,,,,,,,,,,,,,,
2660594,1501038763132,,,,,,,,,0,1335,0,,,,,,,,,,,,,,,
2660604,1501038763142,3.24,,-0.19,-0.06,0.97,-3,-4,7,0,1470,0,,,,,,,,,,,,,,,
2660614,1501038763152,,,,,,,,,0,1545,0,,,,,,,,,,,,,,,
2660624,1501038763162,,,,,,,,,0,1515,0,,,,,,,,,,,,,,,
2660634,1501038763172,,,,,,,,,0,1470,0,,,,,,,,,,,,,,,
2660644,1501038763182,3.22,,-0.14,-0.09,1.02,-2,-5,7,0,1440,0,36.113659,-115.146088,0.0,5.648,2038.6,9,3,1.8,0,0.0,-1,0.0,0.0,0.0,0
2660654,1501038763192,,,,,,,,,0,1395,0,,,,,,,,,,,,,,,
2660664,1501038763202,,,,,,,,,0,1365,0,,,,,,,,,,,,,,,
2660674,1501038763212,,,,,,,,,0,1275,0,,,,,,,,,,,,,,,
2660684,1501038763222,3.22,,-0.13,-0.04,0.99,-2,-7,4,0,1485,0,,,,,,,,,,,,,,,
2660694,1501038763232,,,,,,,,,0,1545,0,,,,,,,,,,,,,,,
2660704,1501038763242,,,,,,,,,0,1515,0,,,,,,,,,,,,,,,
2660714,1501038763252,,,,,,,,,0,1485,0,,,,,,,,,,,,,,,
2660724,1501038763262,3.23,,-0.1,-0.07,0.99,-2,-8,5,0,1485,0,,,,,,,,,,,,,,,
2660734,1501038763272,,,,,,,,,0,1455,0,,,,,,,,,,,,,,,
2660744,1501038763282,,,,,,,,,0,1410,0,36.113659,-115.146088,0.0,5.648,2038.8,9,3,1.8,0,0.0,-1,0.0,0.0,0.0,0
2660754,1501038763293,,,,,,,,,0,1380,0,,,,,,,,,,,,,,,
2660764,1501038763303,3.24,,-0.08,-0.03,0.98,-2,-9,4,0,1290,0,,,,,,,,,,,,,,,
2660774,1501038763313,,,,,,,,,0,1500,0,,,,,,,,,,,,,,,
2660784,1501038763323,,,,,,,,,0,1575,0,,,,,,,,,,,,,,,
2660794,1501038763333,,,,,,,,,0,1560,0,,,,,,,,,,,,,,,
2660804,1501038763343,3.24,,-0.05,-0.02,0.99,-2,-9,4,0,1530,0,,,,,,,,,,,,,,,
2660814,1501038763353,,,,,,,,,0,1500,0,,,,,,,,,,,,,,,
2660824,1501038763363,,,,,,,,,0,1470,0,,,,,,,,,,,,,,,
2660834,1501038763373,,,,,,,,,0,1425,0,,,,,,,,,,,,,,,
2660844,1501038763383,3.23,,-0.02,-0.02,0.98,-2,-10,5,0,1335,0,36.113659,-115.146088,0.0,5.648,2039.0,9,3,1.8,0,0.0,-1,0.0,0.0,0.0,0
2660854,1501038763393,,,,,,,,,0,1545,0,,,,,,,,,,,,,,,
2660864,1501038763403,,,,,,,,,0,1620,0,,,,,,,,,,,,,,,
2660874,1501038763413,,,,,,,,,0,1605,0,,,,,,,,,,,,,,,
2660884,1501038763423,3.23,,0.0,-0.03,1.0,-2,-9,6,0,1575,0,,,,,,,,,,,,,,,
2660894,1501038763433,,,,,,,,,0,1560,0,,,,,,,,,,,,,,,
2660904,1501038763443,,,,,,,,,0,1515,0,,,,,,,,,,,,,,,
2660914,1501038763453,,,,,,,,,0,1485,0,,,,,,,,,,,,,,,
2660924,1501038763463,3.15,,0.01,-0.0,0.99,-2,-9,5,0,1590,0,,,,,,,,,,,,,,,
2660934,1501038763473,,,,,,,,,0,1665,0,,,,,,,,,,,,,,,
2660944,1501038763483,,,,,,,,,0,1650,0,36.113659,-115.146088,0.0,5.648,2039.0,9,3,1.8,0,0.0,-1,0.0,0.0,0.0,0
2660954,1501038763493,,,,,,,,,0,1620,0,,,,,,,,,,,,,,,
2660964,1501038763503,3.16,,0.02,-0.06,1.02,-2,-7,6,0,1590,0,,,,,,,,,,,,,,,
2660974,1501038763513,,,,,,,,,0,1560,0,,,,,,,,,,,,,,,
2660984,1501038763523,,,,,,,,,0,1530,0,,,,,,,,,,,,,,,
2660994,1501038763533,,,,,,,,,0,1440,0,,,,,,,,,,,,,,,
2661004,1501038763543,3.19,,0.01,-0.07,1.04,-2,-5,9,0,1620,0,,,,,,,,,,,,,,,
2661014,1501038763553,,,,,,,,,0,1680,0,,,,,,,,,,,,,,,
2661024,1501038763563,,,,,,,,,0,1650,0,,,,,,,,,,,,,,,
2661034,1501038763573,,,,,,,,,0,1635,0,,,,,,,,,,,,,,,
2661044,1501038763583,3.17,4.5,-0.0,-0.09,1.05,-1,-3,6,0,1605,0,36.113659,-115.146088,0.0,5.648,2039.3,9,3,1.8,0,0.0,-1,0.0,0.0,0.0,0
2661054,1501038763593,,,,,,,,,0,1575,0,,,,,,,,,,,,,,,
2661064,1501038763603,,,,,,,,,0,1530,0,,,,,,,,,,,,,,,
2661074,1501038763613,,,,,,,,,0,1605,0,,,,,,,,,,,,,,,
2661084,1501038763623,3.14,,-0.02,-0.08,1.12,-0,-3,5,0,1665,0,,,,,,,,,,,,,,,
2661094,1501038763633,,,,,,,,,0,1635,0,,,,,,,,,,,,,,,
2661104,1501038763643,,,,,,,,,0,1590,0,,,,,,,,,,,,,,,
2661114,1501038763653,,,,,,,,,0,1575,0,,,,,,,,,,,,,,,
2661124,1501038763663,3.18,,-0.01,-0.03,1.05,-1,-3,4,0,1530,0,,,,,,,,,,,,,,,
2661134,1501038763673,,,,,,,,,0,1500,0,,,,,,,,,,,,,,,
2661144,1501038763683,,,,,,,,,0,1425,0,36.113659,-115.146088,0.0,5.648,2039.2,9,3,1.8,0,0.0,-1,0.0,0.0,0.0,0
2661154,1501038763693,,,,,,,,,0,1575,0,,,,,,,,,,,,,,,
2661164,1501038763703,3.2,,-0.01,0.01,1.0,-1,-3,3,0,1635,0,,,,,,,,,,,,,,,
2661174,1501038763713,,,,,,,,,0,1590,0,,,,,,,,,,,,,,,
2661184,1501038763723,,,,,,,,,0,1560,0,,,,,,,,,,,,,,,
2661194,1501038763733,,,,,,,,,0,1530,0,,,,,,,,,,,,,,,
2661204,1501038763743,3.22,,-0.01,0.01,1.0,-1,-5,3,0,1500,0,,,,,,,,,,,,,,,
2661214,1501038763753,,,,,,,,,0,1455,0,,,,,,,,,,,,,,,
2661224,1501038763763,,,,,,,,,0,1380,0,,,,,,,,,,,,,,,
2661234,1501038763773,,,,,,,,,0,1545,0,,,,,,,,,,,,,,,
2661244,1501038763783,3.21,,0.02,0.02,0.97,-0,-5,1,0,1605,0,36.113659,-115.146088,0.0,5.648,2039.2,9,3,1.8,0,0.0,-1,0.0,0.0,0.0,0
2661254,1501038763793,,,,,,,,,0,1575,0,,,,,,,,,,,,,,,
2661264,1501038763803,,,,,,,,,0,1545,0,,,,,,,,,,,,,,,
2661274,1501038763813,,,,,,,,,0,1515,0,,,,,,,,,,,,,,,
2661284,1501038763823,3.21,,0.01,0.01,1.02,-0,-6,2,0,1470,0,,,,,,,,,,,,,,,
2661294,1501038763833,,,,,,,,,0,1440,0,,,,,,,,,,,,,,,
2661304,1501038763843,,,,,,,,,0,1350,0,,,,,,,,,,,,,,,
2661314,1501038763853,,,,,,,,,0,1545,0,,,,,,,,,,,,,,,
2661324,1501038763863,3.19,,0.04,0.04,0.98,-0,-6,0,0,1590,0,,,,,,,,,,,,,,,
2661334,1501038763873,,,,,,,,,0,1575,0,,,,,,,,,,,,,,,
2661344,1501038763883,,,,,,,,,0,1530,0,36.113659,-115.146088,0.0,5.648,2038.9,9,3,1.8,0,0.0,-1,0.0,0.0,0.0,0
2661354,1501038763893,,,,,,,,,0,1515,0,,,,,,,,,,,,,,,
2661364,1501038763903,3.17,,0.04,0.03,1.01,-0,-5,2,0,1470,0,,,,,,,,,,,,,,,
2661374,1501038763913,,,,,,,,,0,1425,0,,,,,,,,,,,,,,,
2661384,1501038763923,,,,,,,,,0,1335,0,,,,,,,,,,,,,,,
2661394,1501038763933,,,,,,,,,0,1530,0,,,,,,,,,,,,,,,
2661404,1501038763943,3.19,,0.05,0.03,0.91,-0,-6,1,0,1605,0,,,,,,,,,,,,,,,
2661414,1501038763953,,,,,,,,,0,1590,0,,,,,,,,,,,,,,,
2661424,1501038763963,,,,,,,,,0,1545,0,,,,,,,,,,,,,,,
2661434,1501038763973,,,,,,,,,0,1515,0,,,,,,,,,,,,,,,
2661444,1501038763983,3.17,,0.06,0.01,0.95,-0,-7,2,0,1470,0,36.113659,-115.146088,0.0,5.648,2038.6,9,3,1.8,0,0.0,-1,0.0,0.0,0.0,0
2661454,1501038763993,,,,,,,,,0,1440,0,,,,,,,,,,,,,,,
2661464,1501038763997,,,,,,,,,0,1335,0,,,,,,,,,,,,,,,
2661474,1501038764007,,,,,,,,,0,1545,0,,,,,,,,,,,,,,,
2661484,1501038764017,3.17,,0.09,0.03,0.91,-1,-6,2,0,1605,0,,,,,,,,,,,,,,,
2661494,1501038764027,,,,,,,,,0,1590,0,,,,,,,,,,,,,,,
2661504,1501038764037,,,,,,,,,0,1545,0,,,,,,,,,,,,,,,
2661514,1501038764047,,,,,,,,,0,1515,0,,,,,,,,,,,,,,,
2661524,1501038764057,3.16,,0.07,0.02,0.92,-1,-6,3,0,1485,0,,,,,,,,,,,,,,,
2661534,1501038764067,,,,,,,,,0,1440,0,,,,,,,,,,,,,,,
2661544,1501038764077,,,,,,,,,0,1350,0,36.113659,-115.146088,0.0,5.648,2038.6,9,3,1.8,0,0.0,-1,0.0,0.0,0.0,0
2661554,1501038764093,,,,,,,,,0,1545,0,,,,,,,,,,,,,,,
2661564,1501038764103,3.15,,0.08,0.04,0.88,-1,-7,3,0,1620,0,,,,,,,,,,,,,,,
2661574,1501038764113,,,,,,,,,0,1590,0,,,,,,,,,,,,,,,
2661584,1501038764123,,,,,,,,,0,1545,0,,,,,,,,,,,,,,,
2661594,1501038764133,,,,,,,,,0,1515,0,,,,,,,,,,,,,,,
2661604,1501038764143,3.16,,0.07,0.0,0.93,-1,-7,4,0,1485,0,,,,,,,,,,,,,,,
2661614,1501038764153,,,,,,,,,0,1440,0,,,,,,,,,,,,,,,
2661624,1501038764163,,,,,,,,,0,1350,0,,,,,,,,,,,,,,,
2661634,1501038764173,,,,,,,,,0,1545,0,,,,,,,,,,,,,,,
2661644,1501038764183,3.14,,0.08,0.05,0.91,-2,-8,4,0,1605,0,36.113659,-115.146088,0.0,5.648,2038.6,9,3,1.8,0,0.0,-1,0.0,0.0,0.0,0
2661654,1501038764193,,,,,,,,,0,1590,0,,,,,,,,,,,,,,,
2661664,1501038764203,,,,,,,,,0,1545,0,,,,,,,,,,,,,,,
2661674,1501038764213,,,,,,,,,0,1515,0,,,,,,,,,,,,,,,
2661684,1501038764223,3.15,,0.08,0.01,0.94,-2,-6,5,0,1470,0,,,,,,,,,,,,,,,
2661694,1501038764233,,,,,,,,,0,1440,0,,,,,,,,,,,,,,,
2661704,1501038764243,,,,,,,,,0,1335,0,,,,,,,,,,,,,,,
2661714,1501038764253,,,,,,,,,0,1545,0,,,,,,,,,,,,,,,
2661724,1501038764263,3.15,,0.1,0.04,0.86,-2,-6,6,0,1605,0,,,,,,,,,,,,,,,
2661734,1501038764273,,,,,,,,,0,1590,0,,,,,,,,,,,,,,,
2661744,1501038764283,,,,,,,,,0,1545,0,36.113659,-115.146088,0.0,5.648,2038.6,9,3,1.8,0,0.0,-1,0.0,0.0,0.0,0
2661754,1501038764293,,,,,,,,,0,1515,0,,,,,,,,,,,,,,,
2661764,1501038764303,3.17,,0.09,-0.01,0.91,-2,-4,8,0,1470,0,,,,,,,,,,,,,,,
2661774,1501038764313,,,,,,,,,0,1425,0,,,,,,,,,,,,,,,
2661784,1501038764323,,,,,,,,,0,1335,0,,,,,,,,,,,,,,,
2661794,1501038764333,,,,,,,,,0,1545,0,,,,,,,,,,,,,,,
2661804,1501038764343,3.16,,0.08,0.03,0.89,-2,-6,6,0,1605,0,,,,,,,,,,,,,,,
2661814,1501038764353,,,,,,,,,0,1590,0,,,,,,,,,,,,,,,
2661824,1501038764363,,,,,,,,,0,1545,0,,,,,,,,,,,,,,,
2661834,1501038764373,,,,,,,,,0,1515,0,,,,,,,,,,,,,,,
2661844,1501038764383,3.16,,0.08,-0.02,0.95,-2,-7,7,0,1470,0,36.113659,-115.146088,0.0,5.648,2038.6,9,3,1.8,0,0.0,-1,0.0,0.0,0.0,0
2661854,1501038764392,,,,,,,,,0,1440,0,,,,,,,,,,,,,,,
2661864,1501038764402,,,,,,,,,0,1335,0,,,,,,,,,,,,,,,
2661874,1501038764412,,,,,,,,,0,1545,0,,,,,,,,,,,,,,,
2661884,1501038764422,3.15,,0.07,0.03,0.93,-3,-7,6,0,1605,0,,,,,,,,,,,,,,,
2661894,1501038764432,,,,,,,,,0,1575,0,,,,,,,,,,,,,,,
2661904,1501038764442,,,,,,,,,0,1545,0,,,,,,,,,,,,,,,
2661914,1501038764452,,,,,,,,,0,1515,0,,,,,,,,,,,,,,,
2661924,1501038764462,3.17,,0.05,0.0,1.01,-3,-7,6,0,1470,0,,,,,,,,,,,,,,,
2661934,1501038764472,,,,,,,,,0,1425,0,,,,,,,,,,,,,,,
2661944,1501038764482,,,,,,,,,0,1320,0,36.113659,-115.146088,0.0,5.648,2038.6,9,3,1.8,0,0.0,-1,0.0,0.0,0.0,0
2661954,1501038764492,,,,,,,,,0,1545,0,,,,,,,,,,,,,,,
2661964,1501038764502,3.16,,0.07,0.02,0.97,-3,-7,5,0,1605,0,,,,,,,,,,,,,,,
2661974,1501038764512,,,,,,,,,0,1575,0,,,,,,,,,,,,,,,
2661984,1501038764522,,,,,,,,,0,1545,0,,,,,,,,,,,,,,,
2661994,1501038764532,,,,,,,,,0,1500,0,,,,,,,,,,,,,,,
2662004,1501038764542,3.17,,0.05,0.0,1.02,-3,-7,5,0,1470,0,,,,,,,,,,,,,,,
2662014,1501038764552,,,,,,,,,0,1410,0,,,,,,,,,,,,,,,
2662024,1501038764562,,,,,,,,,0,1320,0,,,,,,,,,,,,,,,
2662034,1501038764572,,,,,,,,,0,1530,0,,,,,,,,,,,,,,,
2662044,1501038764582,3.14,4.51,0.06,0.03,1.01,-3,-9,5,0,1605,0,36.113659,-115.146088,0.0,5.648,2038.6,9,3,1.8,0,0.0,-1,0.0,0.0,0.0,0
2662054,1501038764592,,,,,,,,,0,1575,0,,,,,,,,,,,,,,,
2662064,1501038764602,,,,,,,,,0,1530,0,,,,,,,,,,,,,,,
2662074,1501038764612,,,,,,,,,0,1500,0,,,,,,,,,,,,,,,
2662084,1501038764622,3.16,,0.05,0.01,1.03,-3,-8,6,0,1440,0,,,,,,,,,,,,,,,
2662094,1501038764632,,,,,,,,,0,1395,0,,,,,,,,,,,,,,,
2662104,1501038764642,,,,,,,,,0,1290,0,,,,,,,,,,,,,,,
2662114,1501038764652,,,,,,,,,0,1500,0,,,,,,,,,,,,,,,
2662124,1501038764662,3.16,,0.07,0.04,0.96,-3,-9,6,0,1575,0,,,,,,,,,,,,,,,
2662134,1501038764672,,,,,,,,,0,1545,0,,,,,,,,,,,,,,,
2662144,1501038764682,,,,,,,,,0,1500,0,36.113659,-115.146088,0.0,5.648,2038.6,9,3,1.8,0,0.0,-1,0.0,0.0,0.0,0
2662154,1501038764692,,,,,,,,,0,1455,0,,,,,,,,,,,,,,,
2662164,1501038764702,3.17,,0.06,0.03,0.97,-3,-9,5,0,1410,0,,,,,,,,,,,,,,,
2662174,1501038764712,,,,,,,,,0,1350,0,,,,,,,,,,,,,,,
2662184,1501038764722,,,,,,,,,0,1230,0,,,,,,,,,,,,,,,
2662194,1501038764732,,,,,,,,,0,1455,0,,,,,,,,,,,,,,,
2662204,1501038764742,3.16,,0.06,0.01,0.89,-2,-7,4,0,1545,0,,,,,,,,,,,,,,,
2662214,1501038764752,,,,,,,,,0,1515,0,,,,,,,,,,,,,,,
2662224,1501038764762,,,,,,,,,0,1470,0,,,,,,,,,,,,,,,
2662234,1501038764772,,,,,,,,,0,1425,0,,,,,,,,,,,,,,,
2662244,1501038764782,3.12,,0.06,0.01,0.88,-2,-8,3,0,1380,0,36.113659,-115.146088,0.0,5.648,2038.6,9,3,1.8,0,0.0,-1,0.0,0.0,0.0,0
2662254,1501038764792,,,,,,,,,0,1380,0,,,,,,,,,,,,,,,
2662264,1501038764802,,,,,,,,,0,1320,0,,,,,,,,,,,,,,,
2662274,1501038764812,,,,,,,,,0,1200,0,,,,,,,,,,,,,,,
2662284,1501038764822,3.15,,0.06,-0.02,0.94,-2,-9,4,0,1440,0,,,,,,,,,,,,,,,
2662294,1501038764832,,,,,,,,,0,1530,0,,,,,,,,,,,,,,,
2662304,1501038764842,,,,,,,,,0,1515,0,,,,,,,,,,,,,,,
2662314,1501038764852,,,,,,,,,0,1455,0,,,,,,,,,,,,,,,
2662324,1501038764862,3.17,,0.02,0.03,0.93,-2,-7,4,0,1410,0,,,,,,,,,,,,,,,
2662334,1501038764872,,,,,,,,,0,1365,0,,,,,,,,,,,,,,,
2662344,1501038764882,,,,,,,,,0,1320,0,36.113659,-115.146088,0.0,5.648,2038.6,9,3,1.8,0,0.0,-1,0.0,0.0,0.0,0
2662354,1501038764892,,,,,,,,,0,1200,0,,,,,,,,,,,,,,,
2662364,1501038764902,3.18,,0.02,0.03,0.94,-2,-7,4,0,1440,0,,,,,,,,,,,,,,,
2662374,1501038764912,,,,,,,,,0,1545,0,,,,,,,,,,,,,,,
2662384,1501038764922,,,,,,,,,0,1515,0,,,,,,,,,,,,,,,
2662394,1501038764932,,,,,,,,,0,1470,0,,,,,,,,,,,,,,,
2662404,1501038764942,3.17,,0.05,-0.03,1.03,-2,-7,5,0,1425,0,,,,,,,,,,,,,,,
2662414,1501038764952,,,,,,,,,0,1395,0,,,,,,,,,,,,,,,
2662424,1501038764962,,,,,,,,,0,1395,0,,,,,,,,,,,,,,,
2662434,1501038764972,,,,,,,,,0,1335,0,,,,,,,,,,,,,,,
