"Interval"|"ms"|0|0|1,"Utc"|"ms"|0|0|1,"Analog1"|""|0.0|5.0|25,"Battery"|"Volts"|0.0|20.0|1,"AccelX"|"G"|-3.0|3.0|25,"AccelY"|"G"|-3.0|3.0|25,"AccelZ"|"G"|-3.0|3.0|25,"Yaw"|"Deg/Sec"|-120|120|25,"Pitch"|"Deg/Sec"|-120|120|25,"Roll"|"Deg/Sec"|-120|120|25,"RPM"|""|0|10000|100,"EngineRPM"|""|0|10000|100,"AxleRpm"|""|0|10000|100,"Latitude"|"Degrees"|-180.0|180.0|10,"Longitude"|"Degrees"|-180.0|180.0|10,"Speed"|"mph"|0.0|150.0|10,"Distance"|"mi"|0.0|0.0|10,"Altitude"|"ft"|0.0|4000.0|10,"GPSSats"|""|0|20|10,"GPSQual"|""|0|5|10,"GPSDOP"|""|0.0|20.0|10,"LapCount"|""|0|0|10,"LapTime"|"Min"|0.0|0.0|10,"Sector"|""|0|0|10,"SectorTime"|"Min"|0.0|0.0|10,"PredTime"|"Min"|0.0|0.0|10,"ElapsedTime"|"Min"|0.0|0.0|10,"CurrentLap"|""|0|0|10
2733814,1501038836353,,,,,,,,,0,1590,0,,,,,,,,,,,,,,,
2733824,1501038836363,,,,,,,,,0,1575,0,,,,,,,,,,,,,,,
2733834,1501038836373,,,,,,,,,0,1530,0,,,,,,,,,,,,,,,
2733844,1501038836383,3.23,,-0.05,-0.05,0.91,-2,-6,4,0,1500,0,36.113667,-115.145668,0.0,5.812,2035.9,9,3,2.2,0,0.0,-1,0.0,0.0,0.0,0
2733854,1501038836392,,,,,,,,,0,1425,0,,,,,,,,,,,,,,,
2733864,1501038836402,,,,,,,,,0,1590,0,,,,,,,,,,,,,,,
2733874,1501038836412,,,,,,,,,0,1650,0,,,,,,,,,,,,,,,
2733884,1501038836422,3.21,,-0.04,-0.03,0.92,-2,-5,4,0,1635,0,,,,,,,,,,,,,,,
2733894,1501038836432,,,,,,,,,0,1590,0,,,,,,,,,,,,,,,
2733904,1501038836442,,,,,,,,,0,1575,0,,,,,,,,,,,,,,,
2733914,1501038836452,,,,,,,,,0,1530,0,,,,,,,,,,,,,,,
2733924,1501038836462,3.22,,-0.0,0.0,1.0,-2,-6,4,0,1500,0,,,,,,,,,,,,,,,
2733934,1501038836472,,,,,,,,,0,1425,0,,,,,,,,,,,,,,,
2733944,1501038836482,,,,,,,,,0,1590,0,36.113667,-115.145668,0.0,5.812,2035.9,9,3,2.2,0,0.0,-1,0.0,0.0,0.0,0
2733954,1501038836492,,,,,,,,,0,1650,0,,,,,,,,,,,,,,,
2733964,1501038836502,3.19,,0.04,0.01,1.05,-2,-7,3,0,1635,0,,,,,,,,,,,,,,,
2733974,1501038836512,,,,,,,,,0,1590,0,,,,,,,,,,,,,,,
2733984,1501038836522,,,,,,,,,0,1575,0,,,,,,,,,,,,,,,
2733994,1501038836532,,,,,,,,,0,1530,0,,,,,,,,,,,,,,,
2734004,1501038836542,3.21,,0.04,0.0,1.16,-2,-4,4,0,1500,0,,,,,,,,,,,,,,,
2734014,1501038836552,,,,,,,,,0,1425,0,,,,,,,,,,,,,,,
2734024,1501038836562,,,,,,,,,0,1650,0,,,,,,,,,,,,,,,
2734034,1501038836572,,,,,,,,,0,1635,0,,,,,,,,,,,,,,,
2734044,1501038836582,3.17,4.51,0.01,-0.01,1.17,-1,-2,4,0,1590,0,36.113667,-115.145668,0.0,5.812,2035.9,9,3,2.2,0,0.0,-1,0.0,0.0,0.0,0
2734054,1501038836592,,,,,,,,,0,1575,0,,,,,,,,,,,,,,,
2734064,1501038836602,,,,,,,,,0,1530,0,,,,,,,,,,,,,,,
2734074,1501038836612,,,,,,,,,0,1500,0,,,,,,,,,,,,,,,
2734084,1501038836622,3.19,,-0.01,-0.01,1.17,-0,-2,3,0,1425,0,,,,,,,,,,,,,,,
2734094,1501038836632,,,,,,,,,0,1590,0,,,,,,,,,,,,,,,
2734104,1501038836642,,,,,,,,,0,1650,0,,,,,,,,,,,,,,,
2734114,1501038836652,,,,,,,,,0,1635,0,,,,,,,,,,,,,,,
2734124,1501038836662,3.2,,-0.01,0.01,1.13,-1,-3,4,0,1590,0,,,,,,,,,,,,,,,
2734134,1501038836672,,,,,,,,,0,1575,0,,,,,,,,,,,,,,,
2734144,1501038836682,,,,,,,,,0,1530,0,36.113667,-115.145668,0.0,5.812,2035.9,9,3,2.2,0,0.0,-1,0.0,0.0,0.0,0
2734154,1501038836692,,,,,,,,,0,1500,0,,,,,,,,,,,,,,,
2734164,1501038836702,3.18,,0.02,-0.02,1.06,-1,-6,4,0,1425,0,,,,,,,,,,,,,,,
2734174,1501038836712,,,,,,,,,0,1590,0,,,,,,,,,,,,,,,
2734184,1501038836722,,,,,,,,,0,1665,0,,,,,,,,,,,,,,,
2734194,1501038836732,,,,,,,,,0,1635,0,,,,,,,,,,,,,,,
2734204,1501038836742,3.21,,0.05,-0.05,1.02,-1,-7,4,0,1590,0,,,,,,,,,,,,,,,
2734214,1501038836752,,,,,,,,,0,1575,0,,,,,,,,,,,,,,,
2734224,1501038836762,,,,,,,,,0,1530,0,,,,,,,,,,,,,,,
2734234,1501038836772,,,,,,,,,0,1500,0,,,,,,,,,,,,,,,
2734244,1501038836782,3.18,,0.06,-0.04,0.94,-1,-8,3,0,1425,0,36.113667,-115.145668,0.0,5.812,2035.9,9,3,2.2,0,0.0,-1,0.0,0.0,0.0,0
2734254,1501038836792,,,,,,,,,0,1665,0,,,,,,,,,,,,,,,
2734264,1501038836802,,,,,,,,,0,1635,0,,,,,,,,,,,,,,,
2734274,1501038836812,,,,,,,,,0,1605,0,,,,,,,,,,,,,,,
2734284,1501038836822,3.2,,0.05,-0.04,0.98,-2,-9,4,0,1575,0,,,,,,,,,,,,,,,
2734294,1501038836832,,,,,,,,,0,1530,0,,,,,,,,,,,,,,,
2734304,1501038836842,,,,,,,,,0,1500,0,,,,,,,,,,,,,,,
2734314,1501038836852,,,,,,,,,0,1425,0,,,,,,,,,,,,,,,
2734324,1501038836862,3.2,,-0.0,-0.03,0.96,-1,-6,4,0,1590,0,,,,,,,,,,,,,,,
2734334,1501038836872,,,,,,,,,0,1650,0,,,,,,,,,,,,,,,
2734344,1501038836882,,,,,,,,,0,1635,0,36.113667,-115.145668,0.0,5.812,2035.9,9,3,1.8,0,0.0,-1,0.0,0.0,0.0,0
2734354,1501038836892,,,,,,,,,0,1590,0,,,,,,,,,,,,,,,
2734364,1501038836902,3.21,,-0.02,-0.01,1.0,-1,-4,3,0,1575,0,,,,,,,,,,,,,,,
2734374,1501038836912,,,,,,,,,0,1530,0,,,,,,,,,,,,,,,
2734384,1501038836922,,,,,,,,,0,1500,0,,,,,,,,,,,,,,,
2734394,1501038836932,,,,,,,,,0,1425,0,,,,,,,,,,,,,,,
2734404,1501038836942,3.21,,-0.0,0.01,0.99,-2,-2,3,0,1590,0,,,,,,,,,,,,,,,
2734414,1501038836952,,,,,,,,,0,1650,0,,,,,,,,,,,,,,,
2734424,1501038836962,,,,,,,,,0,1620,0,,,,,,,,,,,,,,,
2734434,1501038836972,,,,,,,,,0,1590,0,,,,,,,,,,,,,,,
2734444,1501038836982,3.2,,-0.01,-0.02,1.02,-2,-2,3,0,1560,0,36.113667,-115.145668,0.0,5.812,2035.9,9,3,1.8,0,0.0,-1,0.0,0.0,0.0,0
2734454,1501038836992,,,,,,,,,0,1530,0,,,,,,,,,,,,,,,
2734464,1501038836994,,,,,,,,,0,1500,0,,,,,,,,,,,,,,,
2734474,1501038837004,,,,,,,,,0,1425,0,,,,,,,,,,,,,,,
2734484,1501038837014,3.16,,-0.01,-0.02,1.14,-2,-0,3,0,1650,0,,,,,,,,,,,,,,,
2734494,1501038837024,,,,,,,,,0,1620,0,,,,,,,,,,,,,,,
2734504,1501038837034,,,,,,,,,0,1590,0,,,,,,,,,,,,,,,
2734514,1501038837044,,,,,,,,,0,1560,0,,,,,,,,,,,,,,,
2734524,1501038837054,3.21,,-0.0,-0.02,1.09,-1,-2,2,0,1530,0,,,,,,,,,,,,,,,
2734534,1501038837064,,,,,,,,,0,1500,0,,,,,,,,,,,,,,,
2734544,1501038837074,,,,,,,,,0,1410,0,36.113667,-115.145668,0.0,5.812,2035.9,9,3,1.8,0,0.0,-1,0.0,0.0,0.0,0
2734554,1501038837092,,,,,,,,,0,1575,0,,,,,,,,,,,,,,,
2734564,1501038837102,3.21,,-0.03,-0.02,1.21,-1,-3,1,0,1650,0,,,,,,,,,,,,,,,
2734574,1501038837112,,,,,,,,,0,1635,0,,,,,,,,,,,,,,,
2734584,1501038837122,,,,,,,,,0,1590,0,,,,,,,,,,,,,,,
2734594,1501038837132,,,,,,,,,0,1575,0,,,,,,,,,,,,,,,
2734604,1501038837142,3.21,,-0.03,-0.0,1.13,-1,-3,2,0,1530,0,,,,,,,,,,,,,,,
2734614,1501038837152,,,,,,,,,0,1500,0,,,,,,,,,,,,,,,
2734624,1501038837162,,,,,,,,,0,1425,0,,,,,,,,,,,,,,,
2734634,1501038837172,,,,,,,,,0,1590,0,,,,,,,,,,,,,,,
2734644,1501038837182,3.23,,0.02,-0.05,1.08,-0,-6,3,0,1650,0,36.113667,-115.145668,0.0,5.812,2035.9,9,3,1.8,0,0.0,-1,0.0,0.0,0.0,0
2734654,1501038837192,,,,,,,,,0,1635,0,,,,,,,,,,,,,,,
2734664,1501038837202,,,,,,,,,0,1605,0,,,,,,,,,,,,,,,
2734674,1501038837212,,,,,,,,,0,1575,0,,,,,,,,,,,,,,,
2734684,1501038837222,3.23,,0.0,-0.05,1.03,-0,-6,3,0,1545,0,,,,,,,,,,,,,,,
2734694,1501038837232,,,,,,,,,0,1500,0,,,,,,,,,,,,,,,
2734704,1501038837242,,,,,,,,,0,1425,0,,,,,,,,,,,,,,,
2734714,1501038837252,,,,,,,,,0,1665,0,,,,,,,,,,,,,,,
2734724,1501038837262,3.23,,-0.0,-0.04,1.02,-1,-8,2,0,1635,0,,,,,,,,,,,,,,,
2734734,1501038837272,,,,,,,,,0,1605,0,,,,,,,,,,,,,,,
2734744,1501038837282,,,,,,,,,0,1575,0,36.113667,-115.145668,0.0,5.812,2035.9,9,3,1.8,0,0.0,-1,0.0,0.0,0.0,0
2734754,1501038837292,,,,,,,,,0,1545,0,,,,,,,,,,,,,,,
2734764,1501038837302,3.22,,-0.03,-0.03,1.02,-2,-6,3,0,1515,0,,,,,,,,,,,,,,,
2734774,1501038837312,,,,,,,,,0,1440,0,,,,,,,,,,,,,,,
2734784,1501038837322,,,,,,,,,0,1590,0,,,,,,,,,,,,,,,
2734794,1501038837332,,,,,,,,,0,1665,0,,,,,,,,,,,,,,,
2734804,1501038837342,3.22,,-0.06,-0.03,0.95,-1,-5,4,0,1650,0,,,,,,,,,,,,,,,
2734814,1501038837352,,,,,,,,,0,1605,0,,,,,,,,,,,,,,,
2734824,1501038837362,,,,,,,,,0,1575,0,,,,,,,,,,,,,,,
2734834,1501038837372,,,,,,,,,0,1545,0,,,,,,,,,,,,,,,
2734844,1501038837382,3.19,,-0.03,-0.01,1.02,-1,-2,4,0,1515,0,36.113667,-115.145668,0.0,5.812,2035.9,9,3,1.8,0,0.0,-1,0.0,0.0,0.0,0
2734854,1501038837393,,,,,,,,,0,1425,0,,,,,,,,,,,,,,,
2734864,1501038837403,,,,,,,,,0,1590,0,,,,,,,,,,,,,,,
2734874,1501038837413,,,,,,,,,0,1665,0,,,,,,,,,,,,,,,
2734884,1501038837423,3.2,,-0.03,-0.02,0.98,-2,-2,4,0,1635,0,,,,,,,,,,,,,,,
2734894,1501038837433,,,,,,,,,0,1575,0,,,,,,,,,,,,,,,
2734904,1501038837443,,,,,,,,,0,1545,0,,,,,,,,,,,,,,,
2734914,1501038837453,,,,,,,,,0,1545,0,,,,,,,,,,,,,,,
2734924,1501038837463,3.17,,-0.04,-0.02,1.04,-1,-2,2,0,1425,0,,,,,,,,,,,,,,,
2734934,1501038837473,,,,,,,,,0,1590,0,,,,,,,,,,,,,,,
2734944,1501038837483,,,,,,,,,0,1665,0,36.113667,-115.145668,0.0,5.812,2035.9,9,3,1.8,0,0.0,-1,0.0,0.0,0.0,0
2734954,1501038837493,,,,,,,,,0,1635,0,,,,,,,,,,,,,,,
2734964,1501038837503,3.21,,-0.05,0.02,1.07,-1,-0,4,0,1605,0,,,,,,,,,,,,,,,
2734974,1501038837513,,,,,,,,,0,1575,0,,,,,,,,,,,,,,,
2734984,1501038837523,,,,,,,,,0,1530,0,,,,,,,,,,,,,,,
2734994,1501038837533,,,,,,,,,0,1515,0,,,,,,,,,,,,,,,
2735004,1501038837543,3.2,,-0.02,-0.02,1.02,-1,-3,3,0,1425,0,,,,,,,,,,,,,,,
2735014,1501038837553,,,,,,,,,0,1590,0,,,,,,,,,,,,,,,
2735024,1501038837563,,,,,,,,,0,1665,0,,,,,,,,,,,,,,,
2735034,1501038837573,,,,,,,,,0,1635,0,,,,,,,,,,,,,,,
2735044,1501038837583,3.22,4.52,0.02,-0.04,0.96,-1,-3,3,0,1590,0,36.113667,-115.145668,0.0,5.812,2035.9,9,3,1.8,0,0.0,-1,0.0,0.0,0.0,0
2735054,1501038837593,,,,,,,,,0,1575,0,,,,,,,,,,,,,,,
2735064,1501038837603,,,,,,,,,0,1530,0,,,,,,,,,,,,,,,
2735074,1501038837613,,,,,,,,,0,1515,0,,,,,,,,,,,,,,,
2735084,1501038837623,3.17,,0.03,-0.04,0.92,-1,-7,4,0,1425,0,,,,,,,,,,,,,,,
2735094,1501038837633,,,,,,,,,0,1590,0,,,,,,,,,,,,,,,
2735104,1501038837643,,,,,,,,,0,1635,0,,,,,,,,,,,,,,,
2735114,1501038837653,,,,,,,,,0,1605,0,,,,,,,,,,,,,,,
2735124,1501038837663,3.15,,0.03,-0.03,0.95,-2,-7,5,0,1575,0,,,,,,,,,,,,,,,
2735134,1501038837673,,,,,,,,,0,1545,0,,,,,,,,,,,,,,,
2735144,1501038837683,,,,,,,,,0,1515,0,36.113667,-115.145668,0.0,5.812,2035.9,9,3,1.8,0,0.0,-1,0.0,0.0,0.0,0
2735154,1501038837693,,,,,,,,,0,1425,0,,,,,,,,,,,,,,,
2735164,1501038837703,3.19,,-0.02,-0.02,0.91,-1,-8,3,0,1590,0,,,,,,,,,,,,,,,
2735174,1501038837713,,,,,,,,,0,1665,0,,,,,,,,,,,,,,,
2735184,1501038837723,,,,,,,,,0,1650,0,,,,,,,,,,,,,,,
2735194,1501038837733,,,,,,,,,0,1605,0,,,,,,,,,,,,,,,
2735204,1501038837743,3.2,,-0.03,-0.02,0.98,-1,-6,3,0,1575,0,,,,,,,,,,,,,,,
2735214,1501038837753,,,,,,,,,0,1545,0,,,,,,,,,,,,,,,
2735224,1501038837763,,,,,,,,,0,1515,0,,,,,,,,,,,,,,,
2735234,1501038837773,,,,,,,,,0,1440,0,,,,,,,,,,,,,,,
2735244,1501038837783,3.2,,-0.02,0.02,0.95,-2,-3,4,0,1605,0,36.113667,-115.145668,0.0,5.812,2035.9,9,3,1.8,0,0.0,-1,0.0,0.0,0.0,0
2735254,1501038837793,,,,,,,,,0,1665,0,,,,,,,,,,,,,,,
2735264,1501038837803,,,,,,,,,0,1635,0,,,,,,,,,,,,,,,
2735274,1501038837813,,,,,,,,,0,1605,0,,,,,,,,,,,,,,,
2735284,1501038837823,3.21,,-0.02,-0.01,0.99,-2,-3,3,0,1575,0,,,,,,,,,,,,,,,
2735294,1501038837833,,,,,,,,,0,1545,0,,,,,,,,,,,,,,,
2735304,1501038837843,,,,,,,,,0,1515,0,,,,,,,,,,,,,,,
2735314,1501038837853,,,,,,,,,0,1590,0,,,,,,,,,,,,,,,
2735324,1501038837863,3.19,,-0.03,0.01,1.1,-2,-2,4,0,1665,0,,,,,,,,,,,,,,,
2735334,1501038837873,,,,,,,,,0,1650,0,,,,,,,,,,,,,,,
2735344,1501038837883,,,,,,,,,0,1605,0,36.113667,-115.145668,0.0,5.812,2035.9,9,3,1.8,0,0.0,-1,0.0,0.0,0.0,0
2735354,1501038837893,,,,,,,,,0,1590,0,,,,,,,,,,,,,,,
2735364,1501038837903,3.21,,-0.0,0.01,1.06,-1,-4,4,0,1545,0,,,,,,,,,,,,,,,
2735374,1501038837913,,,,,,,,,0,1515,0,,,,,,,,,,,,,,,
2735384,1501038837923,,,,,,,,,0,1440,0,,,,,,,,,,,,,,,
2735394,1501038837933,,,,,,,,,0,1605,0,,,,,,,,,,,,,,,
2735404,1501038837943,3.23,,0.04,-0.01,1.04,-1,-6,3,0,1665,0,,,,,,,,,,,,,,,
2735414,1501038837953,,,,,,,,,0,1650,0,,,,,,,,,,,,,,,
2735424,1501038837963,,,,,,,,,0,1605,0,,,,,,,,,,,,,,,
2735434,1501038837973,,,,,,,,,0,1590,0,,,,,,,,,,,,,,,
2735444,1501038837983,3.22,,0.05,-0.01,0.99,-1,-7,3,0,1545,0,36.113667,-115.145668,0.0,5.812,2035.9,9,3,1.8,0,0.0,-1,0.0,0.0,0.0,0
2735454,1501038837993,,,,,,,,,0,1515,0,,,,,,,,,,,,,,,
2735464,1501038837997,,,,,,,,,0,1440,0,,,,,,,,,,,,,,,
2735474,1501038838007,,,,,,,,,0,1605,0,,,,,,,,,,,,,,,
2735484,1501038838017,3.24,,0.13,-0.02,1.0,-2,-9,5,0,1665,0,,,,,,,,,,,,,,,
2735494,1501038838027,,,,,,,,,0,1590,0,,,,,,,,,,,,,,,
2735504,1501038838037,,,,,,,,,0,1560,0,,,,,,,,,,,,,,,
2735514,1501038838047,,,,,,,,,0,1515,0,,,,,,,,,,,,,,,
2735524,1501038838057,3.22,,0.19,-0.02,1.01,-1,-11,4,0,1515,0,,,,,,,,,,,,,,,
2735534,1501038838067,,,,,,,,,0,1485,0,,,,,,,,,,,,,,,
2735544,1501038838077,,,,,,,,,0,1590,0,36.113667,-115.145668,0.0,5.812,2035.9,9,3,1.8,0,0.0,-1,0.0,0.0,0.0,0
2735554,1501038838093,,,,,,,,,0,1680,0,,,,,,,,,,,,,,,
2735564,1501038838103,3.16,,0.2,-0.0,0.97,-1,-14,3,0,1665,0,,,,,,,,,,,,,,,
2735574,1501038838113,,,,,,,,,0,1605,0,,,,,,,,,,,,,,,
2735584,1501038838123,,,,,,,,,0,1590,0,,,,,,,,,,,,,,,
2735594,1501038838133,,,,,,,,,0,1560,0,,,,,,,,,,,,,,,
2735604,1501038838143,3.16,,0.23,-0.01,0.92,-2,-16,5,0,1530,0,,,,,,,,,,,,,,,
2735614,1501038838153,,,,,,,,,0,1395,0,,,,,,,,,,,,,,,
2735624,1501038838163,,,,,,,,,0,1560,190,,,,,,,,,,,,,,,
2735634,1501038838173,,,,,,,,,0,1650,190,,,,,,,,,,,,,,,
2735644,1501038838183,3.16,,0.26,-0.03,0.9,-1,-16,5,0,1620,190,36.113667,-115.145668,0.0,5.812,2035.9,9,3,1.8,0,0.0,-1,0.0,0.0,0.0,0
2735654,1501038838193,,,,,,,,,0,1590,190,,,,,,,,,,,,,,,
2735664,1501038838203,,,,,,,,,0,1545,190,,,,,,,,,,,,,,,
2735674,1501038838213,,,,,,,,,0,1515,190,,,,,,,,,,,,,,,
2735684,1501038838223,3.19,,0.3,-0.01,0.93,-1,-16,7,0,1455,190,,,,,,,,,,,,,,,
2735694,1501038838233,,,,,,,,,0,1350,190,,,,,,,,,,,,,,,
2735704,1501038838243,,,,,,,,,0,1545,190,,,,,,,,,,,,,,,
2735714,1501038838253,,,,,,,,,0,1635,190,,,,,,,,,,,,,,,
2735724,1501038838263,3.12,,0.39,0.07,0.96,1,-17,5,0,1605,10000000,,,,,,,,,,,,,,,
2735734,1501038838273,,,,,,,,,0,1545,0,,,,,,,,,,,,,,,
2735744,1501038838283,,,,,,,,,0,1515,0,36.113667,-115.145668,0.0,5.812,2035.9,9,3,1.8,0,0.0,-1,0.0,0.0,0.0,0
2735754,1501038838293,,,,,,,,,0,1470,0,,,,,,,,,,,,,,,
2735764,1501038838303,3.13,,0.42,0.03,0.94,1,-15,6,0,1425,0,,,,,,,,,,,,,,,
2735774,1501038838313,,,,,,,,,0,1320,0,,,,,,,,,,,,,,,
2735784,1501038838323,,,,,,,,,0,1560,0,,,,,,,,,,,,,,,
2735794,1501038838333,,,,,,,,,0,1650,0,,,,,,,,,,,,,,,
2735804,1501038838343,3.07,,0.43,0.06,0.92,0,-13,4,0,1635,0,,,,,,,,,,,,,,,
2735814,1501038838353,,,,,,,,,0,1590,0,,,,,,,,,,,,,,,
2735824,1501038838363,,,,,,,,,0,1575,390,,,,,,,,,,,,,,,
2735834,1501038838373,,,,,,,,,0,1545,390,,,,,,,,,,,,,,,
2735844,1501038838383,3.09,,0.42,0.06,1.02,-0,-8,4,0,1425,390,36.113667,-115.145668,0.0,5.812,2035.9,9,3,1.8,0,0.0,-1,0.0,0.0,0.0,0
2735854,1501038838392,,,,,,,,,0,1650,390,,,,,,,,,,,,,,,
2735864,1501038838402,,,,,,,,,0,1770,390,,,,,,,,,,,,,,,
2735874,1501038838412,,,,,,,,,0,1755,390,,,,,,,,,,,,,,,
2735884,1501038838422,3.16,,0.47,0.08,1.1,0,-9,1,0,1710,390,,,,,,,,,,,,,,,
2735894,1501038838432,,,,,,,,,0,1695,390,,,,,,,,,,,,,,,
2735904,1501038838442,,,,,,,,,0,1680,390,,,,,,,,,,,,,,,
2735914,1501038838452,,,,,,,,,0,1650,390,,,,,,,,,,,,,,,
2735924,1501038838462,3.15,,0.48,0.06,1.04,-1,-9,3,0,1800,390,,,,,,,,,,,,,,,
2735934,1501038838472,,,,,,,,,0,1890,390,,,,,,,,,,,,,,,
2735944,1501038838482,,,,,,,,,0,1875,390,36.113667,-115.145668,0.0,5.812,2035.9,9,3,1.8,0,0.0,-1,0.0,0.0,0.0,0
2735954,1501038838492,,,,,,,,,0,1860,390,,,,,,,,,,,,,,,
2735964,1501038838502,3.11,,0.42,0.04,0.99,-1,-7,2,0,1830,390,,,,,,,,,,,,,,,
2735974,1501038838512,,,,,,,,,0,1800,0,,,,,,,,,,,,,,,
2735984,1501038838522,,,,,,,,,0,1710,140,,,,,,,,,,,,,,,
2735994,1501038838532,,,,,,,,,0,1950,140,,,,,,,,,,,,,,,
2736004,1501038838542,3.14,,0.35,0.01,0.93,0,-3,1,0,2025,140,,,,,,,,,,,,,,,
2736014,1501038838552,,,,,,,,,0,1995,140,,,,,,,,,,,,,,,
2736024,1501038838562,,,,,,,,,0,1980,140,,,,,,,,,,,,,,,
2736034,1501038838572,,,,,,,,,0,1950,140,,,,,,,,,,,,,,,
2736044,1501038838582,3.18,4.51,0.36,-0.07,1.05,1,-3,-1,0,1860,140,36.113667,-115.145668,1.31,5.812,2031.6,9,3,1.8,0,0.0,-1,0.0,0.0,0.0,0
2736054,1501038838592,,,,,,,,,0,2145,140,,,,,,,,,,,,,,,
2736064,1501038838602,,,,,,,,,0,2145,140,,,,,,,,,,,,,,,
2736074,1501038838612,,,,,,,,,0,2100,140,,,,,,,,,,,,,,,
2736084,1501038838622,3.13,,0.42,-0.09,1.13,1,-5,0,0,2070,140,,,,,,,,,,,,,,,
2736094,1501038838632,,,,,,,,,0,2055,140,,,,,,,,,,,,,,,
2736104,1501038838642,,,,,,,,,0,2175,260,,,,,,,,,,,,,,,
2736114,1501038838652,,,,,,,,,0,2250,260,,,,,,,,,,,,,,,
2736124,1501038838662,3.15,,0.38,-0.16,1.06,2,-3,1,0,2220,260,,,,,,,,,,,,,,,
2736134,1501038838672,,,,,,,,,0,2190,260,,,,,,,,,,,,,,,
2736144,1501038838682,,,,,,,,,0,2175,260,36.113667,-115.145668,2.73,5.812,2031.6,9,3,1.8,0,0.0,-1,0.0,0.0,0.0,0
2736154,1501038838692,,,,,,,,,0,2070,260,,,,,,,,,,,,,,,
2736164,1501038838702,3.2,,0.39,-0.12,1.07,2,-6,-1,0,2280,260,,,,,,,,,,,,,,,
2736174,1501038838712,,,,,,,,,0,2325,260,,,,,,,,,,,,,,,
2736184,1501038838722,,,,,,,,,0,2280,260,,,,,,,,,,,,,,,
2736194,1501038838732,,,,,,,,,0,2265,260,,,,,,,,,,,,,,,
2736204,1501038838742,3.16,,0.4,-0.09,1.0,0,-4,3,0,2175,260,,,,,,,,,,,,,,,
2736214,1501038838752,,,,,,,,,0,2355,480,,,,,,,,,,,,,,,
2736224,1501038838762,,,,,,,,,0,2415,480,,,,,,,,,,,,,,,
2736234,1501038838772,,,,,,,,,0,2385,480,,,,,,,,,,,,,,,
2736244,1501038838782,3.23,,0.44,-0.02,1.03,-1,-6,3,0,2355,480,36.113667,-115.145668,3.87,5.812,2031.6,9,3,1.8,0,0.0,-1,0.0,0.0,0.0,0
2736254,1501038838792,,,,,,,,,0,2325,480,,,,,,,,,,,,,,,
2736264,1501038838802,,,,,,,,,0,2430,480,,,,,,,,,,,,,,,
2736274,1501038838812,,,,,,,,,0,2475,480,,,,,,,,,,,,,,,
2736284,1501038838822,3.24,,0.43,-0.06,0.86,-1,-6,4,0,2460,480,,,,,,,,,,,,,,,
2736294,1501038838832,,,,,,,,,0,2415,480,,,,,,,,,,,,,,,
2736304,1501038838842,,,,,,,,,0,2340,480,,,,,,,,,,,,,,,
2736314,1501038838852,,,,,,,,,0,2475,810,,,,,,,,,,,,,,,
2736324,1501038838862,3.24,,0.48,-0.0,0.98,-2,-5,5,0,2550,810,,,,,,,,,,,,,,,
2736334,1501038838872,,,,,,,,,0,2505,810,,,,,,,,,,,,,,,
2736344,1501038838882,,,,,,,,,0,2475,810,36.113667,-115.145668,4.59,5.812,2031.6,9,3,1.8,0,0.0,-1,0.0,0.0,0.0,0
2736354,1501038838892,,,,,,,,,0,2385,810,,,,,,,,,,,,,,,
2736364,1501038838902,3.26,,0.47,-0.02,0.76,-3,-8,7,0,2625,810,,,,,,,,,,,,,,,
2736374,1501038838912,,,,,,,,,0,2595,810,,,,,,,,,,,,,,,
2736384,1501038838922,,,,,,,,,0,2565,810,,,,,,,,,,,,,,,
2736394,1501038838932,,,,,,,,,0,2520,3160,,,,,,,,,,,,,,,
2736404,1501038838942,3.21,,0.44,-0.02,0.75,-2,-5,5,0,2610,3160,,,,,,,,,,,,,,,
2736414,1501038838952,,,,,,,,,0,2670,3160,,,,,,,,,,,,,,,
2736424,1501038838962,,,,,,,,,0,2610,3160,,,,,,,,,,,,,,,
2736434,1501038838972,,,,,,,,,0,2595,3160,,,,,,,,,,,,,,,
2736444,1501038838982,3.24,,0.38,-0.09,0.97,-1,-4,3,0,2565,3160,36.113667,-115.145676,5.18,5.813,2031.7,9,3,1.8,0,0.0,-1,0.0,0.0,0.0,0
2736454,1501038838992,,,,,,,,,0,2640,3160,,,,,,,,,,,,,,,
2736464,1501038838994,,,,,,,,,0,2685,3160,,,,,,,,,,,,,,,
2736474,1501038839004,,,,,,,,,0,2655,3160,,,,,,,,,,,,,,,
2736484,1501038839014,3.18,,0.44,0.04,1.1,-3,-4,5,0,2610,120,,,,,,,,,,,,,,,
2736494,1501038839024,,,,,,,,,0,2550,120,,,,,,,,,,,,,,,
2736504,1501038839034,,,,,,,,,0,2745,120,,,,,,,,,,,,,,,
2736514,1501038839044,,,,,,,,,0,2685,120,,,,,,,,,,,,,,,
2736524,1501038839054,3.24,,0.42,0.06,1.03,-2,-6,6,0,2655,120,,,,,,,,,,,,,,,
2736534,1501038839064,,,,,,,,,0,2640,120,,,,,,,,,,,,,,,
2736544,1501038839074,,,,,,,,,0,2715,120,36.113667,-115.145676,6.3,5.813,2031.8,9,3,1.8,0,0.0,-1,0.0,0.0,0.0,0
2736554,1501038839084,,,,,,,,,0,2760,130,,,,,,,,,,,,,,,
2736564,1501038839100,3.21,,0.4,-0.0,0.82,-3,-9,4,0,2715,130,,,,,,,,,,,,,,,
2736574,1501038839110,,,,,,,,,0,2655,130,,,,,,,,,,,,,,,
2736584,1501038839120,,,,,,,,,0,2745,130,,,,,,,,,,,,,,,
2736594,1501038839130,,,,,,,,,0,2820,130,,,,,,,,,,,,,,,
2736604,1501038839140,3.17,,0.4,-0.05,0.8,-1,-8,0,0,2760,130,,,,,,,,,,,,,,,
2736614,1501038839150,,,,,,,,,0,2730,130,,,,,,,,,,,,,,,
2736624,1501038839160,,,,,,,,,0,2640,140,,,,,,,,,,,,,,,
2736634,1501038839170,,,,,,,,,0,2820,140,,,,,,,,,,,,,,,
2736644,1501038839180,3.19,,0.38,0.0,1.03,-1,-5,1,0,2775,140,36.113667,-115.145676,7.29,5.813,2032.0,9,3,1.8,0,0.0,-1,0.0,0.0,0.0,0
2736654,1501038839192,,,,,,,,,0,2745,140,,,,,,,,,,,,,,,
2736664,1501038839202,,,,,,,,,0,2700,140,,,,,,,,,,,,,,,
2736674,1501038839212,,,,,,,,,0,2790,140,,,,,,,,,,,,,,,
2736684,1501038839222,3.21,,0.39,0.05,1.1,-4,-3,8,0,2790,140,,,,,,,,,,,,,,,
2736694,1501038839232,,,,,,,,,0,2775,140,,,,,,,,,,,,,,,
2736704,1501038839242,,,,,,,,,0,2715,140,,,,,,,,,,,,,,,
2736714,1501038839252,,,,,,,,,0,2655,140,,,,,,,,,,,,,,,
2736724,1501038839262,3.25,,0.41,0.08,1.05,-3,-7,9,0,2835,140,,,,,,,,,,,,,,,
2736734,1501038839272,,,,,,,,,0,2805,140,,,,,,,,,,,,,,,
2736744,1501038839282,,,,,,,,,0,2730,140,36.113667,-115.145676,7.94,5.813,2032.1,9,3,1.8,0,0.0,-1,0.0,0.0,0.0,0
2736754,1501038839294,,,,,,,,,0,2685,140,,,,,,,,,,,,,,,
2736764,1501038839304,3.22,,0.39,0.14,0.95,-4,-11,12,0,2850,150,,,,,,,,,,,,,,,
2736774,1501038839314,,,,,,,,,0,2805,150,,,,,,,,,,,,,,,
2736784,1501038839324,,,,,,,,,0,2790,150,,,,,,,,,,,,,,,
2736794,1501038839334,,,,,,,,,0,2715,150,,,,,,,,,,,,,,,
2736804,1501038839344,3.17,,0.39,0.01,0.87,-3,-12,9,0,2820,150,,,,,,,,,,,,,,,
2736814,1501038839354,,,,,,,,,0,2835,150,,,,,,,,,,,,,,,
2736824,1501038839364,,,,,,,,,0,2805,150,,,,,,,,,,,,,,,
2736834,1501038839374,,,,,,,,,0,2745,150,,,,,,,,,,,,,,,
2736844,1501038839384,3.14,,0.41,-0.07,0.79,-3,-8,10,0,2805,150,36.113667,-115.145691,8.76,5.813,2032.3,9,3,1.8,0,0.0,-1,0.0,0.0,0.0,0
2736854,1501038839391,,,,,,,,,0,2865,150,,,,,,,,,,,,,,,
2736864,1501038839401,,,,,,,,,0,2805,150,,,,,,,,,,,,,,,
2736874,1501038839411,,,,,,,,,0,2760,150,,,,,,,,,,,,,,,
2736884,1501038839421,3.24,,0.37,-0.07,0.93,-2,-4,8,0,2670,160,,,,,,,,,,,,,,,
2736894,1501038839431,,,,,,,,,0,2850,160,,,,,,,,,,,,,,,
2736904,1501038839441,,,,,,,,,0,2805,160,,,,,,,,,,,,,,,
2736914,1501038839451,,,,,,,,,0,2760,160,,,,,,,,,,,,,,,
2736924,1501038839461,3.23,,0.38,0.02,1.14,-1,-4,4,0,2730,160,,,,,,,,,,,,,,,
2736934,1501038839471,,,,,,,,,0,2805,160,,,,,,,,,,,,,,,
2736944,1501038839481,,,,,,,,,0,2850,170,36.113667,-115.145691,9.22,5.814,2032.4,9,3,1.8,0,0.0,-1,0.0,0.0,0.0,0
2736954,1501038839491,,,,,,,,,0,2790,170,,,,,,,,,,,,,,,
2736964,1501038839501,3.22,,0.43,0.08,1.22,-2,-5,6,0,2745,170,,,,,,,,,,,,,,,
2736974,1501038839511,,,,,,,,,0,2820,170,,,,,,,,,,,,,,,
2736984,1501038839521,,,,,,,,,0,2850,170,,,,,,,,,,,,,,,
2736994,1501038839531,,,,,,,,,0,2805,170,,,,,,,,,,,,,,,
2737004,1501038839541,3.19,,0.36,0.11,1.04,-2,-9,4,0,2760,170,,,,,,,,,,,,,,,
2737014,1501038839551,,,,,,,,,0,2685,170,,,,,,,,,,,,,,,
2737024,1501038839561,,,,,,,,,0,2850,170,,,,,,,,,,,,,,,
2737034,1501038839571,,,,,,,,,0,2835,170,,,,,,,,,,,,,,,
2737044,1501038839581,3.19,4.52,0.33,0.14,0.83,-2,-11,6,0,2775,170,36.113667,-115.145691,9.93,5.814,2032.4,9,3,1.8,0,0.0,-1,0.0,0.0,0.0,0
2737054,1501038839591,,,,,,,,,0,2685,180,,,,,,,,,,,,,,,
2737064,1501038839601,,,,,,,,,0,2850,180,,,,,,,,,,,,,,,
2737074,1501038839611,,,,,,,,,0,2850,180,,,,,,,,,,,,,,,
2737084,1501038839621,3.23,,0.39,0.01,0.63,-3,-13,5,0,2805,180,,,,,,,,,,,,,,,
2737094,1501038839631,,,,,,,,,0,2745,180,,,,,,,,,,,,,,,
2737104,1501038839641,,,,,,,,,0,2820,180,,,,,,,,,,,,,,,
2737114,1501038839651,,,,,,,,,0,2835,180,,,,,,,,,,,,,,,
2737124,1501038839661,3.22,,0.38,-0.01,0.6,-2,-11,5,0,2805,180,,,,,,,,,,,,,,,
2737134,1501038839671,,,,,,,,,0,2745,180,,,,,,,,,,,,,,,
2737144,1501038839681,,,,,,,,,0,2685,180,36.113667,-115.145706,10.71,5.814,2032.4,9,3,1.8,0,0.0,-1,0.0,0.0,0.0,0
2737154,1501038839691,,,,,,,,,0,2850,180,,,,,,,,,,,,,,,
2737164,1501038839701,3.14,,0.33,-0.08,0.66,-0,-5,6,0,2820,180,,,,,,,,,,,,,,,
2737174,1501038839711,,,,,,,,,0,2775,180,,,,,,,,,,,,,,,
2737184,1501038839721,,,,,,,,,0,2685,180,,,,,,,,,,,,,,,
2737194,1501038839731,,,,,,,,,0,2880,180,,,,,,,,,,,,,,,
2737204,1501038839741,3.16,,0.35,0.04,0.91,-0,-2,5,0,2835,190,,,,,,,,,,,,,,,
2737214,1501038839751,,,,,,,,,0,2775,190,,,,,,,,,,,,,,,
2737224,1501038839761,,,,,,,,,0,2745,190,,,,,,,,,,,,,,,
2737234,1501038839771,,,,,,,,,0,2835,190,,,,,,,,,,,,,,,
2737244,1501038839781,3.13,,0.33,0.05,1.07,-1,1,4,0,2850,190,36.113667,-115.145706,11.13,5.814,2032.5,9,3,1.8,0,0.0,-1,0.0,0.0,0.0,0
2737254,1501038839791,,,,,,,,,0,2805,190,,,,,,,,,,,,,,,
2737264,1501038839801,,,,,,,,,0,2745,190,,,,,,,,,,,,,,,
2737274,1501038839811,,,,,,,,,0,2835,190,,,,,,,,,,,,,,,
2737284,1501038839821,3.19,,0.35,0.04,0.9,-1,-3,4,0,2865,190,,,,,,,,,,,,,,,
2737294,1501038839831,,,,,,,,,0,2805,190,,,,,,,,,,,,,,,
2737304,1501038839841,,,,,,,,,0,2775,200,,,,,,,,,,,,,,,
2737314,1501038839851,,,,,,,,,0,2700,200,,,,,,,,,,,,,,,
2737324,1501038839861,3.21,,0.29,0.07,0.75,-1,-6,6,0,2880,200,,,,,,,,,,,,,,,
2737334,1501038839871,,,,,,,,,0,2835,200,,,,,,,,,,,,,,,
2737344,1501038839881,,,,,,,,,0,2775,200,36.113667,-115.145714,11.85,5.815,2032.5,9,3,1.8,0,0.0,-1,0.0,0.0,0.0,0
2737354,1501038839891,,,,,,,,,0,2685,210,,,,,,,,,,,,,,,
2737364,1501038839901,3.18,,0.34,0.03,0.59,-2,-9,7,0,2865,210,,,,,,,,,,,,,,,
2737374,1501038839911,,,,,,,,,0,2820,210,,,,,,,,,,,,,,,
2737384,1501038839921,,,,,,,,,0,2820,210,,,,,,,,,,,,,,,
2737394,1501038839931,,,,,,,,,0,2715,210,,,,,,,,,,,,,,,
2737404,1501038839941,3.18,,0.36,-0.03,0.54,-2,-9,6,0,2820,210,,,,,,,,,,,,,,,
2737414,1501038839951,,,,,,,,,0,2835,210,,,,,,,,,,,,,,,
2737424,1501038839961,,,,,,,,,0,2805,210,,,,,,,,,,,,,,,
2737434,1501038839971,,,,,,,,,0,2730,210,,,,,,,,,,,,,,,
2737444,1501038839981,3.13,,0.37,-0.02,0.65,-2,-3,9,0,2820,210,36.113667,-115.145714,12.3,5.815,2032.9,9,3,1.8,0,0.0,-1,0.0,0.0,0.0,0
2737454,1501038839991,,,,,,,,,0,2850,210,,,,,,,,,,,,,,,
2737464,1501038839995,,,,,,,,,0,2820,210,,,,,,,,,,,,,,,
2737474,1501038840005,,,,,,,,,0,2745,210,,,,,,,,,,,,,,,
2737484,1501038840015,3.1,,0.31,-0.02,0.9,1,-1,4,0,2670,210,,,,,,,,,,,,,,,
2737494,1501038840025,,,,,,,,,0,2835,210,,,,,,,,,,,,,,,
2737504,1501038840035,,,,,,,,,0,2805,210,,,,,,,,,,,,,,,
2737514,1501038840045,,,,,,,,,0,2760,210,,,,,,,,,,,,,,,
2737524,1501038840055,3.15,,0.27,0.06,1.07,1,4,1,0,2730,210,,,,,,,,,,,,,,,
2737534,1501038840065,,,,,,,,,0,2805,210,,,,,,,,,,,,,,,
2737544,1501038840075,,,,,,,,,0,2850,220,36.11367,-115.145729,12.95,5.815,2032.9,9,3,1.8,0,0.0,-1,0.0,0.0,0.0,0
2737554,1501038840091,,,,,,,,,0,2790,220,,,,,,,,,,,,,,,
2737564,1501038840101,3.2,,0.27,0.05,1.05,-1,2,-0,0,2730,220,,,,,,,,,,,,,,,
2737574,1501038840111,,,,,,,,,0,2790,220,,,,,,,,,,,,,,,
2737584,1501038840121,,,,,,,,,0,2835,220,,,,,,,,,,,,,,,
2737594,1501038840131,,,,,,,,,0,2805,220,,,,,,,,,,,,,,,
2737604,1501038840141,3.18,,0.23,0.08,0.87,-1,-2,-0,0,2775,220,,,,,,,,,,,,,,,
2737614,1501038840151,,,,,,,,,0,2685,220,,,,,,,,,,,,,,,
2737624,1501038840161,,,,,,,,,0,2865,230,,,,,,,,,,,,,,,
2737634,1501038840171,,,,,,,,,0,2820,230,,,,,,,,,,,,,,,
2737644,1501038840181,3.21,,0.26,0.02,0.63,-1,-7,1,0,2760,230,36.11367,-115.145729,13.44,5.816,2032.8,9,3,1.8,0,0.0,-1,0.0,0.0,0.0,0
2737654,1501038840191,,,,,,,,,0,2670,230,,,,,,,,,,,,,,,
2737664,1501038840201,,,,,,,,,0,2820,230,,,,,,,,,,,,,,,
2737674,1501038840211,,,,,,,,,0,2835,230,,,,,,,,,,,,,,,
2737684,1501038840221,3.19,,0.33,-0.03,0.57,-2,-10,2,0,2790,230,,,,,,,,,,,,,,,
2737694,1501038840231,,,,,,,,,0,2730,230,,,,,,,,,,,,,,,
2737704,1501038840241,,,,,,,,,0,2820,230,,,,,,,,,,,,,,,
2737714,1501038840251,,,,,,,,,0,2835,230,,,,,,,,,,,,,,,
2737724,1501038840261,3.09,,0.29,-0.01,0.62,-2,-5,5,0,2790,230,,,,,,,,,,,,,,,
2737734,1501038840271,,,,,,,,,0,2730,230,,,,,,,,,,,,,,,
2737744,1501038840281,,,,,,,,,0,2655,230,36.11367,-115.145744,13.99,5.816,2032.8,9,3,1.8,0,0.0,-1,0.0,0.0,0.0,0
2737754,1501038840293,,,,,,,,,0,2835,230,,,,,,,,,,,,,,,
2737764,1501038840303,3.13,,0.2,0.01,0.88,-1,1,4,0,2790,230,,,,,,,,,,,,,,,
2737774,1501038840313,,,,,,,,,0,2730,230,,,,,,,,,,,,,,,
2737784,1501038840323,,,,,,,,,0,2670,230,,,,,,,,,,,,,,,
2737794,1501038840333,,,,,,,,,0,2805,230,,,,,,,,,,,,,,,
2737804,1501038840343,3.18,,0.19,0.02,1.07,-2,4,-0,0,2820,230,,,,,,,,,,,,,,,
2737814,1501038840353,,,,,,,,,0,2775,230,,,,,,,,,,,,,,,
2737824,1501038840363,,,,,,,,,0,2730,230,,,,,,,,,,,,,,,
2737834,1501038840373,,,,,,,,,0,2790,240,,,,,,,,,,,,,,,
2737844,1501038840383,3.21,,0.2,0.02,0.97,-2,0,-3,0,2835,240,36.11367,-115.145744,14.21,5.817,2032.8,9,3,1.8,0,0.0,-1,0.0,0.0,0.0,0
2737854,1501038840392,,,,,,,,,0,2775,240,,,,,,,,,,,,,,,
2737864,1501038840402,,,,,,,,,0,2745,240,,,,,,,,,,,,,,,
2737874,1501038840412,,,,,,,,,0,2655,240,,,,,,,,,,,,,,,
2737884,1501038840422,3.19,,0.18,0.06,0.81,-3,-3,-1,0,2850,240,,,,,,,,,,,,,,,
2737894,1501038840432,,,,,,,,,0,2790,240,,,,,,,,,,,,,,,
2737904,1501038840442,,,,,,,,,0,2745,240,,,,,,,,,,,,,,,
2737914,1501038840452,,,,,,,,,0,2640,240,,,,,,,,,,,,,,,
2737924,1501038840462,3.13,,0.24,-0.01,0.63,-2,-6,2,0,2820,240,,,,,,,,,,,,,,,
2737934,1501038840472,,,,,,,,,0,2820,240,,,,,,,,,,,,,,,
2737944,1501038840482,,,,,,,,,0,2760,240,36.11367,-115.145752,14.84,5.817,2032.8,9,3,1.8,0,0.0,-1,0.0,0.0,0.0,0
2737954,1501038840492,,,,,,,,,0,2715,240,,,,,,,,,,,,,,,
2737964,1501038840502,3.17,,0.29,-0.1,0.56,-2,-8,-0,0,2790,240,,,,,,,,,,,,,,,
2737974,1501038840512,,,,,,,,,0,2805,240,,,,,,,,,,,,,,,
2737984,1501038840522,,,,,,,,,0,2745,240,,,,,,,,,,,,,,,
2737994,1501038840532,,,,,,,,,0,2745,250,,,,,,,,,,,,,,,
2738004,1501038840542,3.21,,0.24,-0.02,0.76,-2,-3,3,0,2655,250,,,,,,,,,,,,,,,
2738014,1501038840552,,,,,,,,,0,2820,250,,,,,,,,,,,,,,,
2738024,1501038840562,,,,,,,,,0,2790,250,,,,,,,,,,,,,,,
2738034,1501038840572,,,,,,,,,0,2715,250,,,,,,,,,,,,,,,
2738044,1501038840582,3.17,4.52,0.22,-0.02,0.99,0,-0,-1,0,2640,250,36.11367,-115.145767,14.89,5.817,2032.7,9,3,1.8,0,0.0,-1,0.0,0.0,0.0,0
2738054,1501038840592,,,,,,,,,0,2790,250,,,,,,,,,,,,,,,
2738064,1501038840602,,,,,,,,,0,2820,250,,,,,,,,,,,,,,,
2738074,1501038840612,,,,,,,,,0,2775,250,,,,,,,,,,,,,,,
2738084,1501038840622,3.17,,0.22,0.05,1.04,-1,2,-0,0,2700,250,,,,,,,,,,,,,,,
2738094,1501038840632,,,,,,,,,0,2790,250,,,,,,,,,,,,,,,
2738104,1501038840642,,,,,,,,,0,2820,250,,,,,,,,,,,,,,,
2738114,1501038840652,,,,,,,,,0,2760,260,,,,,,,,,,,,,,,
2738124,1501038840662,3.19,,0.18,0.08,0.87,-2,-1,1,0,2730,260,,,,,,,,,,,,,,,
2738134,1501038840672,,,,,,,,,0,2640,260,,,,,,,,,,,,,,,
2738144,1501038840682,,,,,,,,,0,2790,260,36.11367,-115.145767,15.13,5.818,2032.5,9,3,1.8,0,0.0,-1,0.0,0.0,0.0,0
2738154,1501038840692,,,,,,,,,0,2760,260,,,,,,,,,,,,,,,
2738164,1501038840702,3.2,,0.24,0.02,0.76,-1,-7,2,0,2715,260,,,,,,,,,,,,,,,
2738174,1501038840712,,,,,,,,,0,2685,260,,,,,,,,,,,,,,,
2738184,1501038840722,,,,,,,,,0,2760,250,,,,,,,,,,,,,,,
2738194,1501038840732,,,,,,,,,0,2790,250,,,,,,,,,,,,,,,
2738204,1501038840742,3.19,,0.28,-0.08,0.74,-3,-8,4,0,2730,250,,,,,,,,,,,,,,,
2738214,1501038840752,,,,,,,,,0,2670,250,,,,,,,,,,,,,,,
2738224,1501038840762,,,,,,,,,0,2760,260,,,,,,,,,,,,,,,
2738234,1501038840772,,,,,,,,,0,2805,260,,,,,,,,,,,,,,,
2738244,1501038840782,3.14,,0.2,-0.08,0.85,-0,-2,6,0,2745,260,36.11367,-115.145782,15.65,5.818,2032.3,9,3,1.8,0,0.0,-1,0.0,0.0,0.0,0
2738254,1501038840792,,,,,,,,,0,2715,260,,,,,,,,,,,,,,,
2738264,1501038840802,,,,,,,,,0,2610,260,,,,,,,,,,,,,,,
2738274,1501038840812,,,,,,,,,0,2805,260,,,,,,,,,,,,,,,
2738284,1501038840822,3.1,,0.21,0.02,1.07,-0,1,3,0,2760,260,,,,,,,,,,,,,,,
2738294,1501038840832,,,,,,,,,0,2730,260,,,,,,,,,,,,,,,
2738304,1501038840842,,,,,,,,,0,2655,270,,,,,,,,,,,,,,,
2738314,1501038840852,,,,,,,,,0,2760,270,,,,,,,,,,,,,,,
2738324,1501038840862,3.16,,0.23,0.01,1.09,-0,-0,3,0,2775,270,,,,,,,,,,,,,,,
2738334,1501038840872,,,,,,,,,0,2730,270,,,,,,,,,,,,,,,
2738344,1501038840882,,,,,,,,,0,2715,270,36.11367,-115.145782,16.01,5.819,2032.3,9,3,1.8,0,0.0,-1,0.0,0.0,0.0,0
2738354,1501038840892,,,,,,,,,0,2610,270,,,,,,,,,,,,,,,
2738364,1501038840902,3.17,,0.2,0.1,1.02,-1,-5,3,0,2790,270,,,,,,,,,,,,,,,
2738374,1501038840912,,,,,,,,,0,2745,270,,,,,,,,,,,,,,,
2738384,1501038840922,,,,,,,,,0,2700,270,,,,,,,,,,,,,,,
2738394,1501038840932,,,,,,,,,0,2655,270,,,,,,,,,,,,,,,
2738404,1501038840942,3.12,,0.22,0.03,0.88,-2,-8,4,0,2745,270,,,,,,,,,,,,,,,
2738414,1501038840952,,,,,,,,,0,2775,270,,,,,,,,,,,,,,,
2738424,1501038840962,,,,,,,,,0,2745,270,,,,,,,,,,,,,,,
2738434,1501038840972,,,,,,,,,0,2655,270,,,,,,,,,,,,,,,
2738444,1501038840982,3.15,,0.23,-0.06,0.8,-2,-7,4,0,2760,270,36.11367,-115.14579,16.53,5.819,2032.3,9,3,1.8,0,0.0,-1,0.0,0.0,0.0,0
2738454,1501038840992,,,,,,,,,0,2775,270,,,,,,,,,,,,,,,
2738464,1501038840994,,,,,,,,,0,2730,270,,,,,,,,,,,,,,,
2738474,1501038841004,,,,,,,,,0,2685,270,,,,,,,,,,,,,,,
2738484,1501038841014,3.17,,0.15,-0.02,0.99,-1,-4,5,0,2610,280,,,,,,,,,,,,,,,
2738494,1501038841024,,,,,,,,,0,2790,280,,,,,,,,,,,,,,,
2738504,1501038841034,,,,,,,,,0,2745,280,,,,,,,,,,,,,,,
2738514,1501038841044,,,,,,,,,0,2745,280,,,,,,,,,,,,,,,
2738524,1501038841054,3.19,,0.16,0.02,1.15,-1,-1,3,0,2670,280,,,,,,,,,,,,,,,
2738534,1501038841064,,,,,,,,,0,2775,280,,,,,,,,,,,,,,,
2738544,1501038841074,,,,,,,,,0,2805,280,36.11367,-115.145805,17.04,5.82,2032.4,9,3,1.8,0,0.0,-1,0.0,0.0,0.0,0
2738554,1501038841092,,,,,,,,,0,2745,280,,,,,,,,,,,,,,,
2738564,1501038841102,3.2,,0.16,0.09,1.14,-2,-4,4,0,2730,280,,,,,,,,,,,,,,,
2738574,1501038841112,,,,,,,,,0,2625,280,,,,,,,,,,,,,,,
2738584,1501038841122,,,,,,,,,0,2790,280,,,,,,,,,,,,,,,
2738594,1501038841132,,,,,,,,,0,2760,280,,,,,,,,,,,,,,,
2738604,1501038841142,3.17,,0.18,0.07,0.91,-1,-8,4,0,2685,280,,,,,,,,,,,,,,,
2738614,1501038841152,,,,,,,,,0,2625,280,,,,,,,,,,,,,,,
2738624,1501038841162,,,,,,,,,0,2775,280,,,,,,,,,,,,,,,
2738634,1501038841172,,,,,,,,,0,2790,280,,,,,,,,,,,,,,,
2738644,1501038841182,3.14,,0.27,-0.04,0.77,-3,-10,5,0,2745,280,36.11367,-115.145805,17.28,5.82,2032.4,9,3,1.8,0,0.0,-1,0.0,0.0,0.0,0
2738654,1501038841194,,,,,,,,,0,2670,290,,,,,,,,,,,,,,,
2738664,1501038841204,,,,,,,,,0,2775,290,,,,,,,,,,,,,,,
2738674,1501038841214,,,,,,,,,0,2790,290,,,,,,,,,,,,,,,
2738684,1501038841224,3.08,,0.23,-0.05,0.66,-1,-6,7,0,2745,290,,,,,,,,,,,,,,,
2738694,1501038841234,,,,,,,,,0,2685,290,,,,,,,,,,,,,,,
2738704,1501038841244,,,,,,,,,0,2610,290,,,,,,,,,,,,,,,
2738714,1501038841254,,,,,,,,,0,2805,290,,,,,,,,,,,,,,,
2738724,1501038841264,3.15,,0.2,0.04,0.89,-0,-1,3,0,2745,290,,,,,,,,,,,,,,,
2738734,1501038841274,,,,,,,,,0,2745,290,,,,,,,,,,,,,,,
2738744,1501038841284,,,,,,,,,0,2685,290,36.11367,-115.145821,17.58,5.821,2032.4,9,3,1.8,0,0.0,-1,0.0,0.0,0.0,0
2738754,1501038841294,,,,,,,,,0,2790,290,,,,,,,,,,,,,,,
2738764,1501038841304,3.16,,0.21,0.12,1.03,-1,2,3,0,2820,290,,,,,,,,,,,,,,,
2738774,1501038841314,,,,,,,,,0,2745,290,,,,,,,,,,,,,,,
2738784,1501038841324,,,,,,,,,0,2700,290,,,,,,,,,,,,,,,
2738794,1501038841334,,,,,,,,,0,2625,290,,,,,,,,,,,,,,,
2738804,1501038841344,3.22,,0.2,0.12,0.94,-1,-2,3,0,2805,290,,,,,,,,,,,,,,,
2738814,1501038841354,,,,,,,,,0,2760,290,,,,,,,,,,,,,,,
2738824,1501038841364,,,,,,,,,0,2730,290,,,,,,,,,,,,,,,
2738834,1501038841374,,,,,,,,,0,2625,290,,,,,,,,,,,,,,,
2738844,1501038841384,3.15,,0.18,0.08,0.84,-2,-8,4,0,2805,290,36.11367,-115.145828,17.84,5.821,2032.5,9,3,1.8,0,0.0,-1,0.0,0.0,0.0,0
2738854,1501038841393,,,,,,,,,0,2760,290,,,,,,,,,,,,,,,
2738864,1501038841403,,,,,,,,,0,2775,300,,,,,,,,,,,,,,,
2738874,1501038841413,,,,,,,,,0,2700,300,,,,,,,,,,,,,,,
2738884,1501038841423,3.12,,0.25,0.03,0.73,-2,-10,3,0,2805,300,,,,,,,,,,,,,,,
2738894,1501038841433,,,,,,,,,0,2820,290,,,,,,,,,,,,,,,
2738904,1501038841443,,,,,,,,,0,2760,290,,,,,,,,,,,,,,,
2738914,1501038841453,,,,,,,,,0,2745,290,,,,,,,,,,,,,,,
2738924,1501038841463,3.18,,0.2,0.02,0.85,-2,-6,4,0,2655,300,,,,,,,,,,,,,,,
2738934,1501038841473,,,,,,,,,0,2835,300,,,,,,,,,,,,,,,
2738944,1501038841483,,,,,,,,,0,2805,300,36.11367,-115.145844,18.01,5.822,2032.5,9,3,1.8,0,0.0,-1,0.0,0.0,0.0,0
2738954,1501038841493,,,,,,,,,0,2760,300,,,,,,,,,,,,,,,
2738964,1501038841503,3.19,,0.12,0.06,1.0,-1,-3,2,0,2655,300,,,,,,,,,,,,,,,
2738974,1501038841513,,,,,,,,,0,2835,300,,,,,,,,,,,,,,,
2738984,1501038841523,,,,,,,,,0,2790,300,,,,,,,,,,,,,,,
2738994,1501038841533,,,,,,,,,0,2790,300,,,,,,,,,,,,,,,
2739004,1501038841543,3.19,,0.1,0.05,1.13,-1,-1,-2,0,2715,300,,,,,,,,,,,,,,,
2739014,1501038841553,,,,,,,,,0,2820,300,,,,,,,,,,,,,,,
2739024,1501038841563,,,,,,,,,0,2835,300,,,,,,,,,,,,,,,
2739034,1501038841573,,,,,,,,,0,2775,300,,,,,,,,,,,,,,,
2739044,1501038841583,3.12,4.44,0.09,0.08,1.16,-3,-2,-4,0,2715,300,36.11367,-115.145844,18.52,5.822,2032.7,9,3,1.8,0,0.0,-1,0.0,0.0,0.0,0
2739054,1501038841593,,,,,,,,,0,2655,300,,,,,,,,,,,,,,,
2739064,1501038841603,,,,,,,,,0,2835,300,,,,,,,,,,,,,,,
2739074,1501038841613,,,,,,,,,0,2790,300,,,,,,,,,,,,,,,
2739084,1501038841623,3.16,,0.09,0.08,0.97,-2,-6,-0,0,2745,300,,,,,,,,,,,,,,,
2739094,1501038841633,,,,,,,,,0,2655,300,,,,,,,,,,,,,,,
2739104,1501038841643,,,,,,,,,0,2850,300,,,,,,,,,,,,,,,
2739114,1501038841653,,,,,,,,,0,2790,300,,,,,,,,,,,,,,,
2739124,1501038841663,3.19,,0.18,0.01,0.8,-2,-12,-2,0,2775,310,,,,,,,,,,,,,,,
2739134,1501038841673,,,,,,,,,0,2730,310,,,,,,,,,,,,,,,
2739144,1501038841683,,,,,,,,,0,2820,310,36.11367,-115.145859,18.86,5.823,2032.6,9,3,1.8,0,0.0,-1,0.0,0.0,0.0,0
2739154,1501038841693,,,,,,,,,0,2850,310,,,,,,,,,,,,,,,
2739164,1501038841703,3.16,,0.23,-0.05,0.81,-3,-12,2,0,2790,310,,,,,,,,,,,,,,,
2739174,1501038841713,,,,,,,,,0,2745,310,,,,,,,,,,,,,,,
2739184,1501038841723,,,,,,,,,0,2835,300,,,,,,,,,,,,,,,
2739194,1501038841733,,,,,,,,,0,2850,300,,,,,,,,,,,,,,,
2739204,1501038841743,3.14,,0.16,0.0,0.91,-1,-5,5,0,2805,300,,,,,,,,,,,,,,,
2739214,1501038841753,,,,,,,,,0,2760,310,,,,,,,,,,,,,,,
2739224,1501038841763,,,,,,,,,0,2670,310,,,,,,,,,,,,,,,
2739234,1501038841773,,,,,,,,,0,2850,310,,,,,,,,,,,,,,,
2739244,1501038841783,3.13,,0.12,0.07,1.12,-0,-3,3,0,2805,310,36.11367,-115.145866,19.03,5.823,2032.4,9,3,1.8,0,0.0,-1,0.0,0.0,0.0,0
2739254,1501038841793,,,,,,,,,0,2760,310,,,,,,,,,,,,,,,
2739264,1501038841803,,,,,,,,,0,2745,310,,,,,,,,,,,,,,,
2739274,1501038841813,,,,,,,,,0,2820,310,,,,,,,,,,,,,,,
2739284,1501038841823,3.2,,0.1,0.08,1.28,-1,0,2,0,2835,310,,,,,,,,,,,,,,,
2739294,1501038841833,,,,,,,,,0,2790,310,,,,,,,,,,,,,,,
2739304,1501038841843,,,,,,,,,0,2745,310,,,,,,,,,,,,,,,
2739314,1501038841853,,,,,,,,,0,2820,310,,,,,,,,,,,,,,,
2739324,1501038841863,3.21,,0.14,0.04,1.13,-1,-1,1,0,2850,310,,,,,,,,,,,,,,,
2739334,1501038841873,,,,,,,,,0,2805,310,,,,,,,,,,,,,,,
2739344,1501038841883,,,,,,,,,0,2775,320,36.11367,-115.145882,19.31,5.824,2032.4,9,3,1.8,0,0.0,-1,0.0,0.0,0.0,0
2739354,1501038841895,,,,,,,,,0,2700,320,,,,,,,,,,,,,,,
2739364,1501038841905,3.23,,0.15,0.1,0.9,-1,-5,2,0,2865,320,,,,,,,,,,,,,,,
2739374,1501038841915,,,,,,,,,0,2835,320,,,,,,,,,,,,,,,
2739384,1501038841925,,,,,,,,,0,2775,320,,,,,,,,,,,,,,,
2739394,1501038841935,,,,,,,,,0,2700,320,,,,,,,,,,,,,,,
2739404,1501038841945,3.2,,0.19,0.02,0.8,-1,-11,2,0,2865,310,,,,,,,,,,,,,,,
2739414,1501038841955,,,,,,,,,0,2835,310,,,,,,,,,,,,,,,
2739424,1501038841965,,,,,,,,,0,2820,310,,,,,,,,,,,,,,,
2739434,1501038841975,,,,,,,,,0,2775,310,,,,,,,,,,,,,,,
2739444,1501038841985,3.19,,0.27,0.0,0.77,-2,-12,3,0,2865,310,36.113667,-115.145882,19.4,5.824,2032.6,9,3,1.8,0,0.0,-1,0.0,0.0,0.0,0
2739454,1501038841995,,,,,,,,,0,2880,310,,,,,,,,,,,,,,,
2739464,1501038841997,,,,,,,,,0,2835,310,,,,,,,,,,,,,,,
2739474,1501038842007,,,,,,,,,0,2775,320,,,,,,,,,,,,,,,
2739484,1501038842017,3.18,,0.26,0.06,0.77,-2,-8,5,0,2865,320,,,,,,,,,,,,,,,
2739494,1501038842027,,,,,,,,,0,2895,320,,,,,,,,,,,,,,,
2739504,1501038842037,,,,,,,,,0,2865,320,,,,,,,,,,,,,,,
2739514,1501038842047,,,,,,,,,0,2805,320,,,,,,,,,,,,,,,
2739524,1501038842057,3.17,,0.16,0.07,0.9,-1,-3,9,0,2745,320,,,,,,,,,,,,,,,
2739534,1501038842067,,,,,,,,,0,2910,320,,,,,,,,,,,,,,,
2739544,1501038842077,,,,,,,,,0,2880,320,36.113667,-115.145897,19.73,5.825,2032.6,9,3,1.8,0,0.0,-1,0.0,0.0,0.0,0
2739554,1501038842093,,,,,,,,,0,2835,320,,,,,,,,,,,,,,,
2739564,1501038842103,3.19,,0.12,0.12,1.04,1,1,5,0,2745,320,,,,,,,,,,,,,,,
2739574,1501038842113,,,,,,,,,0,2940,320,,,,,,,,,,,,,,,
2739584,1501038842123,,,,,,,,,0,2895,320,,,,,,,,,,,,,,,
2739594,1501038842133,,,,,,,,,0,2835,320,,,,,,,,,,,,,,,
2739604,1501038842143,3.19,,0.1,0.06,1.22,1,3,1,0,2760,320,,,,,,,,,,,,,,,
2739614,1501038842153,,,,,,,,,0,2910,320,,,,,,,,,,,,,,,
2739624,1501038842163,,,,,,,,,0,2910,330,,,,,,,,,,,,,,,
2739634,1501038842173,,,,,,,,,0,2895,330,,,,,,,,,,,,,,,
2739644,1501038842183,3.13,,0.07,0.05,1.31,-1,6,3,0,2835,330,36.113667,-115.145912,20.18,5.825,2032.6,9,3,1.8,0,0.0,-1,0.0,0.0,0.0,0
2739654,1501038842193,,,,,,,,,0,2895,320,,,,,,,,,,,,,,,
2739664,1501038842203,,,,,,,,,0,2925,320,,,,,,,,,,,,,,,
2739674,1501038842213,,,,,,,,,0,2895,320,,,,,,,,,,,,,,,
2739684,1501038842223,3.16,,0.09,0.04,1.21,-3,3,1,0,2835,330,,,,,,,,,,,,,,,
2739694,1501038842233,,,,,,,,,0,2925,330,,,,,,,,,,,,,,,
2739704,1501038842243,,,,,,,,,0,2940,330,,,,,,,,,,,,,,,
2739714,1501038842253,,,,,,,,,0,2925,330,,,,,,,,,,,,,,,
2739724,1501038842263,3.2,,0.08,0.05,0.95,-3,0,1,0,2850,330,,,,,,,,,,,,,,,
2739734,1501038842273,,,,,,,,,0,2955,330,,,,,,,,,,,,,,,
2739744,1501038842283,,,,,,,,,0,2955,330,36.113667,-115.14592,20.42,5.826,2032.8,9,3,1.8,0,0.0,-1,0.0,0.0,0.0,0
2739754,1501038842293,,,,,,,,,0,2910,330,,,,,,,,,,,,,,,
2739764,1501038842303,3.17,,0.06,0.04,0.8,-3,-3,1,0,2850,330,,,,,,,,,,,,,,,
2739774,1501038842313,,,,,,,,,0,2790,320,,,,,,,,,,,,,,,
2739784,1501038842323,,,,,,,,,0,2985,320,,,,,,,,,,,,,,,
2739794,1501038842333,,,,,,,,,0,2925,320,,,,,,,,,,,,,,,
2739804,1501038842343,3.23,,0.1,-0.02,0.64,-2,-8,3,0,2880,330,,,,,,,,,,,,,,,
2739814,1501038842353,,,,,,,,,0,2805,330,,,,,,,,,,,,,,,
2739824,1501038842363,,,,,,,,,0,2970,330,,,,,,,,,,,,,,,
2739834,1501038842373,,,,,,,,,0,2955,330,,,,,,,,,,,,,,,
2739844,1501038842383,3.23,,0.17,-0.08,0.41,-1,-12,5,0,2895,330,36.113667,-115.14592,20.72,5.826,2032.8,9,3,1.8,0,0.0,-1,0.0,0.0,0.0,0
2739854,1501038842392,,,,,,,,,0,2820,330,,,,,,,,,,,,,,,
2739864,1501038842402,,,,,,,,,0,3015,330,,,,,,,,,,,,,,,
2739874,1501038842412,,,,,,,,,0,2985,330,,,,,,,,,,,,,,,
2739884,1501038842422,3.22,,0.23,-0.11,0.34,-2,-18,7,0,2910,330,,,,,,,,,,,,,,,
2739894,1501038842432,,,,,,,,,0,2850,340,,,,,,,,,,,,,,,
2739904,1501038842442,,,,,,,,,0,2985,340,,,,,,,,,,,,,,,
2739914,1501038842452,,,,,,,,,0,2970,340,,,,,,,,,,,,,,,
2739924,1501038842462,3.23,,0.26,-0.13,0.31,-2,-21,9,0,2925,330,,,,,,,,,,,,,,,
2739934,1501038842472,,,,,,,,,0,2850,330,,,,,,,,,,,,,,,
2739944,1501038842482,,,,,,,,,0,3030,330,36.113667,-115.145935,21.13,5.827,2032.9,9,3,1.8,0,0.0,-1,0.0,0.0,0.0,0
2739954,1501038842492,,,,,,,,,0,2985,330,,,,,,,,,,,,,,,
2739964,1501038842502,3.24,,0.33,-0.09,0.34,-2,-24,7,0,2925,330,,,,,,,,,,,,,,,
2739974,1501038842512,,,,,,,,,0,2865,330,,,,,,,,,,,,,,,
2739984,1501038842522,,,,,,,,,0,3015,330,,,,,,,,,,,,,,,
2739994,1501038842532,,,,,,,,,0,3000,330,,,,,,,,,,,,,,,
2740004,1501038842542,3.21,,0.35,-0.03,0.33,-2,-26,8,0,2955,330,,,,,,,,,,,,,,,
2740014,1501038842552,,,,,,,,,0,2865,340,,,,,,,,,,,,,,,
2740024,1501038842562,,,,,,,,,0,3045,340,,,,,,,,,,,,,,,
2740034,1501038842572,,,,,,,,,0,3015,340,,,,,,,,,,,,,,,
2740044,1501038842582,3.25,4.5,0.41,0.02,0.34,-2,-27,7,0,2940,340,36.113667,-115.14595,21.27,5.828,2032.9,9,3,1.8,0,0.0,-1,0.0,0.0,0.0,0
2740054,1501038842592,,,,,,,,,0,2895,340,,,,,,,,,,,,,,,
2740064,1501038842602,,,,,,,,,0,3045,340,,,,,,,,,,,,,,,
2740074,1501038842612,,,,,,,,,0,3015,340,,,,,,,,,,,,,,,
2740084,1501038842622,3.26,,0.43,0.06,0.41,-2,-26,8,0,2985,340,,,,,,,,,,,,,,,
2740094,1501038842632,,,,,,,,,0,2895,340,,,,,,,,,,,,,,,
2740104,1501038842642,,,,,,,,,0,3030,340,,,,,,,,,,,,,,,
2740114,1501038842652,,,,,,,,,0,3015,340,,,,,,,,,,,,,,,
2740124,1501038842662,3.14,,0.41,0.14,0.44,-3,-23,10,0,2940,340,,,,,,,,,,,,,,,
2740134,1501038842672,,,,,,,,,0,2865,340,,,,,,,,,,,,,,,
2740144,1501038842682,,,,,,,,,0,2895,340,36.113667,-115.145958,21.45,5.828,2033.0,9,3,1.8,0,0.0,-1,0.0,0.0,0.0,0
2740154,1501038842694,,,,,,,,,0,2850,330,,,,,,,,,,,,,,,
2740164,1501038842704,3.17,,0.32,0.11,0.41,-2,-18,10,0,2805,330,,,,,,,,,,,,,,,
2740174,1501038842714,,,,,,,,,0,2745,330,,,,,,,,,,,,,,,
2740184,1501038842724,,,,,,,,,0,2730,310,,,,,,,,,,,,,,,
2740194,1501038842734,,,,,,,,,0,2685,310,,,,,,,,,,,,,,,
2740204,1501038842744,3.19,,0.17,0.06,0.42,-4,-12,8,0,2655,310,,,,,,,,,,,,,,,
2740214,1501038842754,,,,,,,,,0,2610,310,,,,,,,,,,,,,,,
2740224,1501038842764,,,,,,,,,0,2595,300,,,,,,,,,,,,,,,
2740234,1501038842774,,,,,,,,,0,2595,300,,,,,,,,,,,,,,,
2740244,1501038842784,3.16,,-0.04,0.0,0.69,-2,-3,8,0,2535,300,36.113667,-115.145973,21.8,5.829,2033.2,9,3,1.8,0,0.0,-1,0.0,0.0,0.0,0
2740254,1501038842792,,,,,,,,,0,2490,300,,,,,,,,,,,,,,,
2740264,1501038842802,,,,,,,,,0,2490,300,,,,,,,,,,,,,,,
2740274,1501038842812,,,,,,,,,0,2460,300,,,,,,,,,,,,,,,
2740284,1501038842822,3.18,,-0.14,0.0,0.86,-1,6,9,0,2460,280,,,,,,,,,,,,,,,
2740294,1501038842832,,,,,,,,,0,2430,280,,,,,,,,,,,,,,,
2740304,1501038842842,,,,,,,,,0,2430,280,,,,,,,,,,,,,,,
2740314,1501038842852,,,,,,,,,0,2400,280,,,,,,,,,,,,,,,
2740324,1501038842862,3.17,,-0.21,-0.01,0.91,-3,6,7,0,2385,270,,,,,,,,,,,,,,,
2740334,1501038842872,,,,,,,,,0,2400,270,,,,,,,,,,,,,,,
2740344,1501038842882,,,,,,,,,0,2370,270,36.113667,-115.145988,21.66,5.829,2033.3,9,3,1.8,0,0.0,-1,0.0,0.0,0.0,0
2740354,1501038842894,,,,,,,,,0,2355,270,,,,,,,,,,,,,,,
2740364,1501038842904,3.15,,-0.33,-0.01,1.07,-4,7,9,0,2310,270,,,,,,,,,,,,,,,
2740374,1501038842914,,,,,,,,,0,2295,270,,,,,,,,,,,,,,,
2740384,1501038842924,,,,,,,,,0,2310,270,,,,,,,,,,,,,,,
2740394,1501038842934,,,,,,,,,0,2295,270,,,,,,,,,,,,,,,
2740404,1501038842944,3.17,,-0.4,0.03,1.01,-2,5,6,0,2280,270,,,,,,,,,,,,,,,
2740414,1501038842954,,,,,,,,,0,2250,270,,,,,,,,,,,,,,,
2740424,1501038842964,,,,,,,,,0,2235,270,,,,,,,,,,,,,,,
2740434,1501038842974,,,,,,,,,0,2250,260,,,,,,,,,,,,,,,
2740444,1501038842984,3.17,,-0.47,-0.06,1.13,-1,3,6,0,2235,260,36.113667,-115.145988,20.98,5.83,2033.2,9,3,1.8,0,0.0,-1,0.0,0.0,0.0,0
2740454,1501038842994,,,,,,,,,0,2220,260,,,,,,,,,,,,,,,
2740464,1501038842998,,,,,,,,,0,2205,260,,,,,,,,,,,,,,,
2740474,1501038843008,,,,,,,,,0,2190,260,,,,,,,,,,,,,,,
2740484,1501038843018,3.25,,-0.47,-0.05,1.1,-1,0,4,0,2190,260,,,,,,,,,,,,,,,
2740494,1501038843028,,,,,,,,,0,2190,260,,,,,,,,,,,,,,,
2740504,1501038843038,,,,,,,,,0,2160,260,,,,,,,,,,,,,,,
2740514,1501038843048,,,,,,,,,0,2160,250,,,,,,,,,,,,,,,
2740524,1501038843058,3.27,,-0.49,-0.09,1.09,-1,-1,4,0,2130,250,,,,,,,,,,,,,,,
2740534,1501038843068,,,,,,,,,0,2115,250,,,,,,,,,,,,,,,
2740544,1501038843078,,,,,,,,,0,2130,250,36.113667,-115.145996,19.65,5.831,2033.4,9,3,1.8,0,0.0,-1,0.0,0.0,0.0,0
2740554,1501038843094,,,,,,,,,0,2130,240,,,,,,,,,,,,,,,
2740564,1501038843104,3.26,,-0.53,-0.07,1.05,-0,-3,4,0,2100,240,,,,,,,,,,,,,,,
2740574,1501038843114,,,,,,,,,0,2085,240,,,,,,,,,,,,,,,
2740584,1501038843124,,,,,,,,,0,2070,240,,,,,,,,,,,,,,,
2740594,1501038843134,,,,,,,,,0,2040,240,,,,,,,,,,,,,,,
2740604,1501038843144,3.28,,-0.52,-0.06,0.99,0,-3,5,0,2055,240,,,,,,,,,,,,,,,
2740614,1501038843154,,,,,,,,,0,2025,240,,,,,,,,,,,,,,,
2740624,1501038843164,,,,,,,,,0,2010,240,,,,,,,,,,,,,,,
2740634,1501038843174,,,,,,,,,0,1995,230,,,,,,,,,,,,,,,
2740644,1501038843184,3.22,,-0.57,-0.05,0.99,1,-3,4,0,1980,230,36.113667,-115.146011,18.68,5.831,2033.3,9,3,1.8,0,0.0,-1,0.0,0.0,0.0,0
2740654,1501038843194,,,,,,,,,0,1965,230,,,,,,,,,,,,,,,
2740664,1501038843204,,,,,,,,,0,1980,230,,,,,,,,,,,,,,,
2740674,1501038843214,,,,,,,,,0,1980,230,,,,,,,,,,,,,,,
2740684,1501038843224,3.27,,-0.58,-0.02,0.95,1,-3,3,0,1965,230,,,,,,,,,,,,,,,
2740694,1501038843234,,,,,,,,,0,1965,230,,,,,,,,,,,,,,,
2740704,1501038843244,,,,,,,,,0,1920,230,,,,,,,,,,,,,,,
2740714,1501038843254,,,,,,,,,0,1905,230,,,,,,,,,,,,,,,
2740724,1501038843264,3.29,,-0.58,-0.0,0.9,0,-3,5,0,1920,230,,,,,,,,,,,,,,,
2740734,1501038843274,,,,,,,,,0,1890,230,,,,,,,,,,,,,,,
2740744,1501038843284,,,,,,,,,0,1875,230,36.113667,-115.146027,17.52,5.832,2033.5,9,3,1.8,0,0.0,-1,0.0,0.0,0.0,0
2740754,1501038843292,,,,,,,,,0,1845,230,,,,,,,,,,,,,,,
2740764,1501038843302,3.21,,-0.59,-0.0,0.96,0,-3,5,0,1830,230,,,,,,,,,,,,,,,
2740774,1501038843312,,,,,,,,,0,1815,210,,,,,,,,,,,,,,,
2740784,1501038843322,,,,,,,,,0,1800,210,,,,,,,,,,,,,,,
2740794,1501038843332,,,,,,,,,0,1800,210,,,,,,,,,,,,,,,
2740804,1501038843342,3.22,,-0.6,-0.07,1.04,1,-6,5,0,1785,210,,,,,,,,,,,,,,,
2740814,1501038843352,,,,,,,,,0,1755,200,,,,,,,,,,,,,,,
2740824,1501038843362,,,,,,,,,0,1755,200,,,,,,,,,,,,,,,
2740834,1501038843372,,,,,,,,,0,1740,200,,,,,,,,,,,,,,,
2740844,1501038843382,3.24,,-0.58,-0.07,1.02,-0,-4,6,0,1725,200,36.113667,-115.146027,17.03,5.832,2033.6,9,3,1.8,0,0.0,-1,0.0,0.0,0.0,0
2740854,1501038843391,,,,,,,,,0,1710,200,,,,,,,,,,,,,,,
2740864,1501038843401,,,,,,,,,0,1710,190,,,,,,,,,,,,,,,
2740874,1501038843411,,,,,,,,,0,1695,190,,,,,,,,,,,,,,,
2740884,1501038843421,3.26,,-0.56,-0.02,0.98,-0,-5,5,0,1665,190,,,,,,,,,,,,,,,
2740894,1501038843431,,,,,,,,,0,1680,190,,,,,,,,,,,,,,,
2740904,1501038843441,,,,,,,,,0,1635,190,,,,,,,,,,,,,,,
2740914,1501038843451,,,,,,,,,0,1635,190,,,,,,,,,,,,,,,
2740924,1501038843461,3.26,,-0.56,-0.03,0.97,-0,-7,4,0,1620,190,,,,,,,,,,,,,,,
2740934,1501038843471,,,,,,,,,0,1650,190,,,,,,,,,,,,,,,
2740944,1501038843481,,,,,,,,,0,1635,190,36.113667,-115.146034,15.61,5.833,2033.6,9,3,1.8,0,0.0,-1,0.0,0.0,0.0,0
2740954,1501038843491,,,,,,,,,0,1635,190,,,,,,,,,,,,,,,
2740964,1501038843501,3.16,,-0.54,-0.0,0.94,-1,-7,4,0,1605,190,,,,,,,,,,,,,,,
2740974,1501038843511,,,,,,,,,0,1575,180,,,,,,,,,,,,,,,
2740984,1501038843521,,,,,,,,,0,1560,180,,,,,,,,,,,,,,,
2740994,1501038843531,,,,,,,,,0,1560,180,,,,,,,,,,,,,,,
2741004,1501038843541,3.24,,-0.54,-0.06,1.01,-0,-8,4,0,1560,180,,,,,,,,,,,,,,,
2741014,1501038843551,,,,,,,,,0,1560,180,,,,,,,,,,,,,,,
2741024,1501038843561,,,,,,,,,0,1530,180,,,,,,,,,,,,,,,
2741034,1501038843571,,,,,,,,,0,1515,170,,,,,,,,,,,,,,,
2741044,1501038843581,3.24,4.51,-0.55,-0.07,1.07,-0,-6,3,0,1515,170,36.113667,-115.146034,14.4,5.833,2033.4,9,3,1.8,0,0.0,-1,0.0,0.0,0.0,0
2741054,1501038843591,,,,,,,,,0,1485,170,,,,,,,,,,,,,,,
2741064,1501038843601,,,,,,,,,0,1485,170,,,,,,,,,,,,,,,
2741074,1501038843611,,,,,,,,,0,1455,170,,,,,,,,,,,,,,,
2741084,1501038843621,3.2,,-0.57,-0.04,1.05,-1,-4,4,0,1485,170,,,,,,,,,,,,,,,
2741094,1501038843631,,,,,,,,,0,1485,160,,,,,,,,,,,,,,,
2741104,1501038843641,,,,,,,,,0,1470,160,,,,,,,,,,,,,,,
2741114,1501038843651,,,,,,,,,0,1440,160,,,,,,,,,,,,,,,
2741124,1501038843661,3.18,,-0.55,-0.06,1.05,-1,-4,4,0,1425,160,,,,,,,,,,,,,,,
2741134,1501038843671,,,,,,,,,0,1425,160,,,,,,,,,,,,,,,
2741144,1501038843681,,,,,,,,,0,1395,160,36.113663,-115.14605,14.22,5.833,2033.4,9,3,1.8,0,0.0,-1,0.0,0.0,0.0,0
2741154,1501038843693,,,,,,,,,0,1380,160,,,,,,,,,,,,,,,
2741164,1501038843703,3.24,,-0.55,-0.04,1.01,-1,-6,5,0,1365,140,,,,,,,,,,,,,,,
2741174,1501038843713,,,,,,,,,0,1395,140,,,,,,,,,,,,,,,
2741184,1501038843723,,,,,,,,,0,1410,140,,,,,,,,,,,,,,,
2741194,1501038843733,,,,,,,,,0,1395,140,,,,,,,,,,,,,,,
2741204,1501038843743,3.24,,-0.54,-0.01,0.95,-1,-7,6,0,1365,140,,,,,,,,,,,,,,,
2741214,1501038843753,,,,,,,,,0,1350,140,,,,,,,,,,,,,,,
2741224,1501038843763,,,,,,,,,0,1320,140,,,,,,,,,,,,,,,
2741234,1501038843773,,,,,,,,,0,1305,140,,,,,,,,,,,,,,,
2741244,1501038843783,3.23,,-0.58,0.01,0.93,-2,-5,6,0,1305,140,36.113663,-115.146065,14.09,5.834,2033.7,9,3,1.8,0,0.0,-1,0.0,0.0,0.0,0
2741254,1501038843793,,,,,,,,,0,1290,140,,,,,,,,,,,,,,,
2741264,1501038843803,,,,,,,,,0,1365,140,,,,,,,,,,,,,,,
2741274,1501038843813,,,,,,,,,0,1395,140,,,,,,,,,,,,,,,
2741284,1501038843823,3.23,,-0.59,0.03,0.95,-2,-4,6,0,1365,140,,,,,,,,,,,,,,,
2741294,1501038843833,,,,,,,,,0,1335,140,,,,,,,,,,,,,,,
2741304,1501038843843,,,,,,,,,0,1320,120,,,,,,,,,,,,,,,
2741314,1501038843853,,,,,,,,,0,1290,120,,,,,,,,,,,,,,,
2741324,1501038843863,3.22,,-0.59,-0.05,0.99,-1,-4,6,0,1290,120,,,,,,,,,,,,,,,
2741334,1501038843873,,,,,,,,,0,1275,120,,,,,,,,,,,,,,,
2741344,1501038843883,,,,,,,,,0,1230,120,36.113663,-115.146065,13.82,5.834,2034.1,9,3,1.8,0,0.0,-1,0.0,0.0,0.0,0
2741354,1501038843893,,,,,,,,,0,1335,120,,,,,,,,,,,,,,,
2741364,1501038843903,3.23,,-0.56,0.0,0.95,-1,-6,5,0,1365,120,,,,,,,,,,,,,,,
2741374,1501038843913,,,,,,,,,0,1350,120,,,,,,,,,,,,,,,
2741384,1501038843923,,,,,,,,,0,1320,120,,,,,,,,,,,,,,,
2741394,1501038843933,,,,,,,,,0,1290,110,,,,,,,,,,,,,,,
2741404,1501038843943,3.24,,-0.57,-0.0,0.9,-1,-5,5,0,1260,110,,,,,,,,,,,,,,,
2741414,1501038843953,,,,,,,,,0,1260,110,,,,,,,,,,,,,,,
2741424,1501038843963,,,,,,,,,0,1230,110,,,,,,,,,,,,,,,
2741434,1501038843973,,,,,,,,,0,1170,110,,,,,,,,,,,,,,,
2741444,1501038843983,3.24,,-0.55,-0.06,1.0,-2,-6,6,0,1335,110,36.113663,-115.146072,12.99,5.834,2034.5,9,3,1.8,0,0.0,-1,0.0,0.0,0.0,0
2741454,1501038843993,,,,,,,,,0,1410,110,,,,,,,,,,,,,,,
2741464,1501038843993,,,,,,,,,0,1380,110,,,,,,,,,,,,,,,
2741474,1501038844003,,,,,,,,,0,1350,110,,,,,,,,,,,,,,,
2741484,1501038844013,3.17,,-0.53,-0.06,1.11,-1,-5,5,0,1335,1610,,,,,,,,,,,,,,,
2741494,1501038844023,,,,,,,,,0,1335,1610,,,,,,,,,,,,,,,
2741504,1501038844033,,,,,,,,,0,1305,1610,,,,,,,,,,,,,,,
2741514,1501038844043,,,,,,,,,0,1275,1610,,,,,,,,,,,,,,,
2741524,1501038844053,3.19,,-0.52,-0.04,1.04,-1,-7,4,0,1185,1610,,,,,,,,,,,,,,,
2741534,1501038844063,,,,,,,,,0,1395,1610,,,,,,,,,,,,,,,
2741544,1501038844073,,,,,,,,,0,1485,1610,36.113663,-115.146072,11.75,5.835,2035.0,9,3,1.8,0,0.0,-1,0.0,0.0,0.0,0
2741554,1501038844091,,,,,,,,,0,1470,1610,,,,,,,,,,,,,,,
2741564,1501038844101,3.18,,-0.5,0.01,0.97,-1,-7,4,0,1425,1610,,,,,,,,,,,,,,,
2741574,1501038844111,,,,,,,,,0,1395,1610,,,,,,,,,,,,,,,
2741584,1501038844121,,,,,,,,,0,1350,580,,,,,,,,,,,,,,,
2741594,1501038844131,,,,,,,,,0,1350,580,,,,,,,,,,,,,,,
2741604,1501038844141,3.2,,-0.5,-0.01,0.96,-2,-6,5,0,1305,580,,,,,,,,,,,,,,,
2741614,1501038844151,,,,,,,,,0,1200,580,,,,,,,,,,,,,,,
2741624,1501038844161,,,,,,,,,0,1410,580,,,,,,,,,,,,,,,
2741634,1501038844171,,,,,,,,,0,1500,580,,,,,,,,,,,,,,,
2741644,1501038844181,3.22,,-0.42,-0.06,1.02,-1,-7,3,0,1470,580,36.113663,-115.146072,7.99,5.835,2034.2,9,3,1.8,0,0.0,-1,0.0,0.0,0.0,0
2741654,1501038844193,,,,,,,,,0,1410,580,,,,,,,,,,,,,,,
2741664,1501038844203,,,,,,,,,0,1365,580,,,,,,,,,,,,,,,
2741674,1501038844213,,,,,,,,,0,1320,580,,,,,,,,,,,,,,,
2741684,1501038844223,3.18,,-0.43,-0.02,0.98,-1,-7,4,0,1275,580,,,,,,,,,,,,,,,
2741694,1501038844233,,,,,,,,,0,1170,580,,,,,,,,,,,,,,,
2741704,1501038844243,,,,,,,,,0,1410,580,,,,,,,,,,,,,,,
2741714,1501038844253,,,,,,,,,0,1515,260,,,,,,,,,,,,,,,
2741724,1501038844263,3.17,,-0.44,-0.02,0.89,-1,-8,4,0,1485,260,,,,,,,,,,,,,,,
2741734,1501038844273,,,,,,,,,0,1440,260,,,,,,,,,,,,,,,
2741744,1501038844283,,,,,,,,,0,1440,260,36.113663,-115.146072,6.78,5.835,2034.1,9,3,1.8,0,0.0,-1,0.0,0.0,0.0,0
2741754,1501038844293,,,,,,,,,0,1410,260,,,,,,,,,,,,,,,
2741764,1501038844303,3.24,,-0.38,-0.02,0.95,-1,-9,3,0,1365,260,,,,,,,,,,,,,,,
2741774,1501038844313,,,,,,,,,0,1305,260,,,,,,,,,,,,,,,
2741784,1501038844323,,,,,,,,,0,1215,260,,,,,,,,,,,,,,,
2741794,1501038844333,,,,,,,,,0,1410,260,,,,,,,,,,,,,,,
2741804,1501038844343,3.25,,-0.38,0.01,0.93,-1,-10,4,0,1515,260,,,,,,,,,,,,,,,
2741814,1501038844353,,,,,,,,,0,1485,10000000,,,,,,,,,,,,,,,
2741824,1501038844363,,,,,,,,,0,1440,0,,,,,,,,,,,,,,,
2741834,1501038844373,,,,,,,,,0,1395,0,,,,,,,,,,,,,,,
2741844,1501038844383,3.2,,-0.37,0.03,0.93,-1,-11,4,0,1365,0,36.113663,-115.146088,5.89,5.835,2034.2,9,3,1.8,0,0.0,-1,0.0,0.0,0.0,0
2741854,1501038844392,,,,,,,,,0,1365,160,,,,,,,,,,,,,,,
2741864,1501038844402,,,,,,,,,0,1305,160,,,,,,,,,,,,,,,
2741874,1501038844412,,,,,,,,,0,1185,160,,,,,,,,,,,,,,,
2741884,1501038844422,3.25,,-0.35,-0.06,1.07,-0,-12,4,0,1350,160,,,,,,,,,,,,,,,
2741894,1501038844432,,,,,,,,,0,1470,160,,,,,,,,,,,,,,,
2741904,1501038844442,,,,,,,,,0,1440,160,,,,,,,,,,,,,,,
2741914,1501038844452,,,,,,,,,0,1395,160,,,,,,,,,,,,,,,
2741924,1501038844462,3.24,,-0.34,-0.06,1.13,-0,-10,3,0,1350,160,,,,,,,,,,,,,,,
2741934,1501038844472,,,,,,,,,0,1320,160,,,,,,,,,,,,,,,
2741944,1501038844482,,,,,,,,,0,1320,160,36.113663,-115.146088,4.88,5.836,2034.3,9,3,1.8,0,0.0,-1,0.0,0.0,0.0,0
2741954,1501038844492,,,,,,,,,0,1260,160,,,,,,,,,,,,,,,
2741964,1501038844502,3.23,,-0.35,-0.02,1.07,-1,-10,3,0,1140,160,,,,,,,,,,,,,,,
2741974,1501038844512,,,,,,,,,0,1290,160,,,,,,,,,,,,,,,
2741984,1501038844522,,,,,,,,,0,1395,10000000,,,,,,,,,,,,,,,
2741994,1501038844532,,,,,,,,,0,1350,0,,,,,,,,,,,,,,,
2742004,1501038844542,3.19,,-0.32,-0.02,1.01,-1,-10,3,0,1320,0,,,,,,,,,,,,,,,
2742014,1501038844552,,,,,,,,,0,1275,0,,,,,,,,,,,,,,,
2742024,1501038844562,,,,,,,,,0,1275,0,,,,,,,,,,,,,,,
2742034,1501038844572,,,,,,,,,0,1230,0,,,,,,,,,,,,,,,
2742044,1501038844582,3.21,4.52,-0.3,-0.04,1.01,-1,-8,4,0,1185,0,36.113663,-115.146088,4.34,5.836,2034.4,9,3,1.8,0,0.0,-1,0.0,0.0,0.0,0
2742054,1501038844594,,,,,,,,,0,1065,470,,,,,,,,,,,,,,,
2742064,1501038844604,,,,,,,,,0,1065,470,,,,,,,,,,,,,,,
2742074,1501038844614,,,,,,,,,0,1095,470,,,,,,,,,,,,,,,
2742084,1501038844624,3.23,,-0.29,-0.1,1.03,-1,-6,5,0,1095,470,,,,,,,,,,,,,,,
2742094,1501038844634,,,,,,,,,0,1095,470,,,,,,,,,,,,,,,
2742104,1501038844644,,,,,,,,,0,1065,470,,,,,,,,,,,,,,,
2742114,1501038844654,,,,,,,,,0,1020,470,,,,,,,,,,,,,,,
2742124,1501038844664,3.23,,-0.3,-0.1,1.03,-1,-5,4,0,1020,470,,,,,,,,,,,,,,,
2742134,1501038844674,,,,,,,,,0,990,470,,,,,,,,,,,,,,,
2742144,1501038844684,,,,,,,,,0,960,470,36.113663,-115.146088,3.62,5.836,2034.6,9,3,1.8,0,0.0,-1,0.0,0.0,0.0,0
2742154,1501038844694,,,,,,,,,0,960,0,,,,,,,,,,,,,,,
2742164,1501038844704,3.22,,-0.33,-0.1,1.04,-1,-3,5,0,930,0,,,,,,,,,,,,,,,
2742174,1501038844714,,,,,,,,,0,930,0,,,,,,,,,,,,,,,
2742184,1501038844724,,,,,,,,,0,810,0,,,,,,,,,,,,,,,
2742194,1501038844734,,,,,,,,,0,870,0,,,,,,,,,,,,,,,
2742204,1501038844744,3.23,,-0.38,-0.06,1.04,-1,-3,5,0,870,0,,,,,,,,,,,,,,,
2742214,1501038844754,,,,,,,,,0,885,0,,,,,,,,,,,,,,,
2742224,1501038844764,,,,,,,,,0,885,0,,,,,,,,,,,,,,,
2742234,1501038844774,,,,,,,,,0,885,0,,,,,,,,,,,,,,,
2742244,1501038844784,3.23,,-0.42,-0.07,1.06,-1,-2,5,0,885,0,36.113663,-115.146088,3.08,5.836,2034.7,9,3,1.8,0,0.0,-1,0.0,0.0,0.0,0
2742254,1501038844794,,,,,,,,,0,870,0,,,,,,,,,,,,,,,
2742264,1501038844804,,,,,,,,,0,870,0,,,,,,,,,,,,,,,
2742274,1501038844814,,,,,,,,,0,870,0,,,,,,,,,,,,,,,
2742284,1501038844824,3.23,,-0.44,-0.07,1.06,-1,-2,4,0,855,0,,,,,,,,,,,,,,,
2742294,1501038844834,,,,,,,,,0,855,0,,,,,,,,,,,,,,,
2742304,1501038844844,,,,,,,,,0,840,0,,,,,,,,,,,,,,,
2742314,1501038844854,,,,,,,,,0,840,0,,,,,,,,,,,,,,,
2742324,1501038844864,3.2,,-0.45,-0.07,1.11,-1,-2,5,0,720,0,,,,,,,,,,,,,,,
2742334,1501038844874,,,,,,,,,0,720,0,,,,,,,,,,,,,,,
2742344,1501038844884,,,,,,,,,0,795,0,36.113663,-115.146088,2.32,5.836,2034.9,9,3,1.8,0,0.0,-1,0.0,0.0,0.0,0
2742354,1501038844892,,,,,,,,,0,795,0,,,,,,,,,,,,,,,
2742364,1501038844902,3.21,,-0.42,-0.05,1.12,-1,-3,5,0,810,0,,,,,,,,,,,,,,,
2742374,1501038844912,,,,,,,,,0,810,0,,,,,,,,,,,,,,,
2742384,1501038844922,,,,,,,,,0,795,0,,,,,,,,,,,,,,,
2742394,1501038844932,,,,,,,,,0,795,0,,,,,,,,,,,,,,,
2742404,1501038844942,3.24,,-0.35,-0.04,1.12,-1,-6,5,0,795,0,,,,,,,,,,,,,,,
2742414,1501038844952,,,,,,,,,0,780,0,,,,,,,,,,,,,,,
2742424,1501038844962,,,,,,,,,0,780,0,,,,,,,,,,,,,,,
2742434,1501038844972,,,,,,,,,0,780,0,,,,,,,,,,,,,,,
2742444,1501038844982,3.24,,-0.29,-0.03,1.11,-2,-9,5,0,780,0,36.113663,-115.146088,1.32,5.836,2035.1,9,3,1.8,0,0.0,-1,0.0,0.0,0.0,0
2742454,1501038844992,,,,,,,,,0,765,0,,,,,,,,,,,,,,,
2742464,1501038844996,,,,,,,,,0,765,0,,,,,,,,,,,,,,,
2742474,1501038845006,,,,,,,,,0,705,0,,,,,,,,,,,,,,,
2742484,1501038845016,3.23,,-0.23,-0.02,1.08,-2,-12,5,0,705,0,,,,,,,,,,,,,,,
2742494,1501038845026,,,,,,,,,0,735,0,,,,,,,,,,,,,,,
2742504,1501038845036,,,,,,,,,0,735,0,,,,,,,,,,,,,,,
2742514,1501038845046,,,,,,,,,0,720,0,,,,,,,,,,,,,,,
2742524,1501038845056,3.23,,-0.18,-0.02,1.05,-2,-14,5,0,720,0,,,,,,,,,,,,,,,
2742534,1501038845066,,,,,,,,,0,720,0,,,,,,,,,,,,,,,
2742544,1501038845076,,,,,,,,,0,720,0,36.113663,-115.146103,0.0,5.836,2035.1,9,3,1.8,0,0.0,-1,0.0,0.0,0.0,0
2742554,1501038845094,,,,,,,,,0,720,0,,,,,,,,,,,,,,,
2742564,1501038845104,3.22,,-0.15,-0.02,1.02,-2,-15,5,0,705,0,,,,,,,,,,,,,,,
2742574,1501038845114,,,,,,,,,0,705,0,,,,,,,,,,,,,,,
2742584,1501038845124,,,,,,,,,0,705,0,,,,,,,,,,,,,,,
2742594,1501038845134,,,,,,,,,0,705,0,,,,,,,,,,,,,,,
2742604,1501038845144,3.22,,-0.12,-0.01,0.98,-2,-14,5,0,690,0,,,,,,,,,,,,,,,
2742614,1501038845154,,,,,,,,,0,690,0,,,,,,,,,,,,,,,
2742624,1501038845164,,,,,,,,,0,675,0,,,,,,,,,,,,,,,
2742634,1501038845174,,,,,,,,,0,675,0,,,,,,,,,,,,,,,
2742644,1501038845184,3.22,,-0.11,-0.02,0.97,-2,-13,5,0,675,0,36.113663,-115.146103,0.0,5.836,2035.3,9,3,1.8,0,0.0,-1,0.0,0.0,0.0,0
2742654,1501038845194,,,,,,,,,0,600,0,,,,,,,,,,,,,,,
2742664,1501038845204,,,,,,,,,0,600,0,,,,,,,,,,,,,,,
2742674,1501038845214,,,,,,,,,0,630,0,,,,,,,,,,,,,,,
2742684,1501038845224,3.22,,-0.09,-0.01,0.98,-2,-11,5,0,630,0,,,,,,,,,,,,,,,
2742694,1501038845234,,,,,,,,,0,630,0,,,,,,,,,,,,,,,
2742704,1501038845244,,,,,,,,,0,630,0,,,,,,,,,,,,,,,
2742714,1501038845254,,,,,,,,,0,630,0,,,,,,,,,,,,,,,
2742724,1501038845264,3.22,,-0.06,-0.01,0.99,-2,-9,5,0,615,0,,,,,,,,,,,,,,,
2742734,1501038845274,,,,,,,,,0,615,0,,,,,,,,,,,,,,,
2742744,1501038845284,,,,,,,,,0,615,0,36.113663,-115.146103,0.0,5.836,2035.4,9,3,1.8,0,0.0,-1,0.0,0.0,0.0,0
2742754,1501038845294,,,,,,,,,0,585,0,,,,,,,,,,,,,,,
2742764,1501038845304,3.23,,-0.0,-0.01,1.0,-2,-9,4,0,585,0,,,,,,,,,,,,,,,
2742774,1501038845314,,,,,,,,,0,600,0,,,,,,,,,,,,,,,
2742784,1501038845324,,,,,,,,,0,600,0,,,,,,,,,,,,,,,
2742794,1501038845334,,,,,,,,,0,600,0,,,,,,,,,,,,,,,
2742804,1501038845344,3.23,,0.04,-0.01,1.01,-2,-10,4,0,570,0,,,,,,,,,,,,,,,
2742814,1501038845354,,,,,,,,,0,570,0,,,,,,,,,,,,,,,
2742824,1501038845364,,,,,,,,,0,570,0,,,,,,,,,,,,,,,
2742834,1501038845374,,,,,,,,,0,570,0,,,,,,,,,,,,,,,
2742844,1501038845384,3.22,,0.04,-0.0,1.01,-2,-9,4,0,570,0,36.113663,-115.146103,0.0,5.836,2035.7,9,3,1.8,0,0.0,-1,0.0,0.0,0.0,0
2742854,1501038845393,,,,,,,,,0,570,0,,,,,,,,,,,,,,,
2742864,1501038845403,,,,,,,,,0,495,0,,,,,,,,,,,,,,,
2742874,1501038845413,,,,,,,,,0,495,0,,,,,,,,,,,,,,,
2742884,1501038845423,3.23,,0.04,-0.01,1.0,-2,-8,4,0,495,0,,,,,,,,,,,,,,,
2742894,1501038845433,,,,,,,,,0,525,0,,,,,,,,,,,,,,,
2742904,1501038845443,,,,,,,,,0,525,0,,,,,,,,,,,,,,,
2742914,1501038845453,,,,,,,,,0,525,0,,,,,,,,,,,,,,,
2742924,1501038845463,3.23,,0.03,-0.02,0.99,-2,-7,3,0,495,0,,,,,,,,,,,,,,,
2742934,1501038845473,,,,,,,,,0,495,0,,,,,,,,,,,,,,,
2742944,1501038845483,,,,,,,,,0,495,0,36.113663,-115.146103,0.0,5.836,2036.0,9,3,1.8,0,0.0,-1,0.0,0.0,0.0,0
2742954,1501038845493,,,,,,,,,0,480,0,,,,,,,,,,,,,,,
2742964,1501038845503,3.22,,0.01,-0.01,1.01,-2,-6,4,0,480,0,,,,,,,,,,,,,,,
2742974,1501038845513,,,,,,,,,0,480,0,,,,,,,,,,,,,,,
2742984,1501038845523,,,,,,,,,0,465,0,,,,,,,,,,,,,,,
2742994,1501038845533,,,,,,,,,0,465,0,,,,,,,,,,,,,,,
2743004,1501038845543,3.23,,0.01,-0.03,1.01,-2,-7,4,0,465,0,,,,,,,,,,,,,,,
2743014,1501038845553,,,,,,,,,0,465,0,,,,,,,,,,,,,,,
2743024,1501038845563,,,,,,,,,0,465,0,,,,,,,,,,,,,,,
2743034,1501038845573,,,,,,,,,0,465,0,,,,,,,,,,,,,,,
2743044,1501038845583,3.22,4.54,0.03,-0.04,0.98,-2,-5,4,0,465,0,36.113663,-115.146103,0.0,5.836,2036.3,9,3,1.8,0,0.0,-1,0.0,0.0,0.0,0
2743054,1501038845593,,,,,,,,,0,450,0,,,,,,,,,,,,,,,
2743064,1501038845603,,,,,,,,,0,450,0,,,,,,,,,,,,,,,
2743074,1501038845613,,,,,,,,,0,450,0,,,,,,,,,,,,,,,
2743084,1501038845623,3.23,,0.03,-0.03,0.98,-2,-4,4,0,450,0,,,,,,,,,,,,,,,
2743094,1501038845633,,,,,,,,,0,435,0,,,,,,,,,,,,,,,
2743104,1501038845643,,,,,,,,,0,435,0,,,,,,,,,,,,,,,
2743114,1501038845653,,,,,,,,,0,435,0,,,,,,,,,,,,,,,
2743124,1501038845663,3.22,,0.02,-0.0,1.0,-1,-5,4,0,330,0,,,,,,,,,,,,,,,
2743134,1501038845673,,,,,,,,,0,330,0,,,,,,,,,,,,,,,
2743144,1501038845683,,,,,,,,,0,585,0,36.113663,-115.146103,0.0,5.836,2036.8,9,3,1.8,0,0.0,-1,0.0,0.0,0.0,0
2743154,1501038845693,,,,,,,,,0,585,0,,,,,,,,,,,,,,,
2743164,1501038845703,3.2,,-0.0,0.0,1.01,-1,-6,4,0,690,0,,,,,,,,,,,,,,,
2743174,1501038845713,,,,,,,,,0,690,0,,,,,,,,,,,,,,,
2743184,1501038845723,,,,,,,,,0,675,0,,,,,,,,,,,,,,,
2743194,1501038845733,,,,,,,,,0,675,0,,,,,,,,,,,,,,,
2743204,1501038845743,3.21,,-0.01,-0.01,0.99,-1,-6,4,0,675,0,,,,,,,,,,,,,,,
2743214,1501038845753,,,,,,,,,0,660,0,,,,,,,,,,,,,,,
2743224,1501038845763,,,,,,,,,0,660,0,,,,,,,,,,,,,,,
2743234,1501038845773,,,,,,,,,0,675,0,,,,,,,,,,,,,,,
2743244,1501038845783,3.21,,0.01,-0.0,1.0,-2,-6,4,0,675,0,36.113663,-115.146103,0.0,5.836,2037.1,9,3,1.8,0,0.0,-1,0.0,0.0,0.0,0
2743254,1501038845793,,,,,,,,,0,645,0,,,,,,,,,,,,,,,
2743264,1501038845803,,,,,,,,,0,645,0,,,,,,,,,,,,,,,
2743274,1501038845813,,,,,,,,,0,645,0,,,,,,,,,,,,,,,
2743284,1501038845823,3.22,,0.0,0.02,0.99,-1,-7,5,0,645,0,,,,,,,,,,,,,,,
2743294,1501038845833,,,,,,,,,0,645,0,,,,,,,,,,,,,,,
2743304,1501038845843,,,,,,,,,0,570,0,,,,,,,,,,,,,,,
2743314,1501038845853,,,,,,,,,0,750,0,,,,,,,,,,,,,,,
2743324,1501038845863,3.22,,0.0,0.01,1.01,-1,-7,4,0,750,0,,,,,,,,,,,,,,,
2743334,1501038845873,,,,,,,,,0,870,0,,,,,,,,,,,,,,,
2743344,1501038845883,,,,,,,,,0,870,0,36.113663,-115.146103,0.0,5.836,2037.2,9,3,1.8,0,0.0,-1,0.0,0.0,0.0,0
2743354,1501038845893,,,,,,,,,0,870,0,,,,,,,,,,,,,,,
2743364,1501038845903,3.21,,-0.01,-0.0,0.99,-1,-7,4,0,870,0,,,,,,,,,,,,,,,
2743374,1501038845913,,,,,,,,,0,855,0,,,,,,,,,,,,,,,
2743384,1501038845923,,,,,,,,,0,855,0,,,,,,,,,,,,,,,
2743394,1501038845933,,,,,,,,,0,855,0,,,,,,,,,,,,,,,
2743404,1501038845943,3.21,,0.02,-0.01,0.99,-2,-7,4,0,855,0,,,,,,,,,,,,,,,
2743414,1501038845953,,,,,,,,,0,855,0,,,,,,,,,,,,,,,
2743424,1501038845963,,,,,,,,,0,840,0,,,,,,,,,,,,,,,
2743434,1501038845973,,,,,,,,,0,840,0,,,,,,,,,,,,,,,
2743444,1501038845983,3.22,,0.04,-0.02,1.01,-2,-5,5,0,720,0,36.113663,-115.146103,0.0,5.836,2037.8,9,3,1.8,0,0.0,-1,0.0,0.0,0.0,0
2743454,1501038845993,,,,,,,,,0,1065,0,,,,,,,,,,,,,,,
2743464,1501038845997,,,,,,,,,0,1245,0,,,,,,,,,,,,,,,
2743474,1501038846007,,,,,,,,,0,1230,0,,,,,,,,,,,,,,,
2743484,1501038846017,3.19,,0.05,-0.03,1.08,-2,-4,6,0,1230,0,,,,,,,,,,,,,,,
2743494,1501038846027,,,,,,,,,0,1230,0,,,,,,,,,,,,,,,
2743504,1501038846037,,,,,,,,,0,1230,0,,,,,,,,,,,,,,,
2743514,1501038846047,,,,,,,,,0,1230,0,,,,,,,,,,,,,,,
2743524,1501038846057,3.19,,0.03,-0.03,1.06,-2,-2,6,0,1215,0,,,,,,,,,,,,,,,
2743534,1501038846067,,,,,,,,,0,1140,0,,,,,,,,,,,,,,,
2743544,1501038846077,,,,,,,,,0,1425,0,36.113663,-115.146103,0.0,5.836,2037.8,9,3,1.8,0,0.0,-1,0.0,0.0,0.0,0
2743554,1501038846091,,,,,,,,,0,1560,0,,,,,,,,,,,,,,,
2743564,1501038846101,3.19,,0.02,-0.08,1.05,-2,-0,6,0,1575,0,,,,,,,,,,,,,,,
2743574,1501038846111,,,,,,,,,0,1560,0,,,,,,,,,,,,,,,
2743584,1501038846121,,,,,,,,,0,1560,0,,,,,,,,,,,,,,,
2743594,1501038846131,,,,,,,,,0,1560,0,,,,,,,,,,,,,,,
2743604,1501038846141,3.2,,0.04,-0.08,1.04,-2,2,6,0,1545,0,,,,,,,,,,,,,,,
2743614,1501038846151,,,,,,,,,0,1485,0,,,,,,,,,,,,,,,
2743624,1501038846161,,,,,,,,,0,1680,0,,,,,,,,,,,,,,,
2743634,1501038846171,,,,,,,,,0,1785,0,,,,,,,,,,,,,,,
2743644,1501038846181,3.21,,0.05,-0.1,1.09,-3,4,7,0,1785,0,36.113663,-115.146103,0.0,5.836,2037.8,9,3,1.8,0,0.0,-1,0.0,0.0,0.0,0
2743654,1501038846193,,,,,,,,,0,1800,0,,,,,,,,,,,,,,,
2743664,1501038846203,,,,,,,,,0,1770,0,,,,,,,,,,,,,,,
2743674,1501038846213,,,,,,,,,0,1770,0,,,,,,,,,,,,,,,
2743684,1501038846223,3.18,,0.05,-0.06,1.09,-3,1,7,0,1950,0,,,,,,,,,,,,,,,
2743694,1501038846233,,,,,,,,,0,2040,0,,,,,,,,,,,,,,,
2743704,1501038846243,,,,,,,,,0,2040,0,,,,,,,,,,,,,,,
2743714,1501038846253,,,,,,,,,0,2040,0,,,,,,,,,,,,,,,
2743724,1501038846263,3.17,,0.01,-0.04,1.01,-2,-0,5,0,2025,0,,,,,,,,,,,,,,,
2743734,1501038846273,,,,,,,,,0,2010,0,,,,,,,,,,,,,,,
2743744,1501038846283,,,,,,,,,0,2040,0,36.113663,-115.146103,0.0,5.836,2037.8,9,3,1.8,0,0.0,-1,0.0,0.0,0.0,0
2743754,1501038846293,,,,,,,,,0,2010,0,,,,,,,,,,,,,,,
2743764,1501038846303,3.17,,0.01,-0.03,0.98,-2,-3,4,0,1995,0,,,,,,,,,,,,,,,
2743774,1501038846313,,,,,,,,,0,1995,0,,,,,,,,,,,,,,,
2743784,1501038846323,,,,,,,,,0,1995,0,,,,,,,,,,,,,,,
2743794,1501038846333,,,,,,,,,0,1980,0,,,,,,,,,,,,,,,
2743804,1501038846343,3.17,,0.05,-0.02,0.91,-3,-6,4,0,2160,0,,,,,,,,,,,,,,,
2743814,1501038846353,,,,,,,,,0,2250,0,,,,,,,,,,,,,,,
2743824,1501038846363,,,,,,,,,0,2235,0,,,,,,,,,,,,,,,
2743834,1501038846373,,,,,,,,,0,2265,0,,,,,,,,,,,,,,,
2743844,1501038846383,3.16,,-0.02,0.06,0.81,-2,-4,4,0,2220,0,36.113663,-115.146103,0.0,5.836,2037.8,9,3,1.8,0,0.0,-1,0.0,0.0,0.0,0
2743854,1501038846393,,,,,,,,,0,2370,0,,,,,,,,,,,,,,,
2743864,1501038846403,,,,,,,,,0,2475,0,,,,,,,,,,,,,,,
2743874,1501038846413,,,,,,,,,0,2445,0,,,,,,,,,,,,,,,
2743884,1501038846423,3.14,,0.03,0.01,0.87,-2,-2,5,0,2475,0,,,,,,,,,,,,,,,
2743894,1501038846433,,,,,,,,,0,2445,0,,,,,,,,,,,,,,,
2743904,1501038846443,,,,,,,,,0,2460,0,,,,,,,,,,,,,,,
2743914,1501038846453,,,,,,,,,0,2430,0,,,,,,,,,,,,,,,
2743924,1501038846463,3.13,,0.01,-0.01,0.88,-2,-3,3,0,2415,0,,,,,,,,,,,,,,,
2743934,1501038846473,,,,,,,,,0,2400,0,,,,,,,,,,,,,,,
2743944,1501038846483,,,,,,,,,0,2400,0,36.113663,-115.146103,0.0,5.836,2037.8,9,3,1.8,0,0.0,-1,0.0,0.0,0.0,0
2743954,1501038846492,,,,,,,,,0,2460,0,,,,,,,,,,,,,,,
2743964,1501038846502,3.16,,0.02,-0.01,0.91,-2,3,4,0,2505,0,,,,,,,,,,,,,,,
2743974,1501038846512,,,,,,,,,0,2490,0,,,,,,,,,,,,,,,
2743984,1501038846522,,,,,,,,,0,2505,0,,,,,,,,,,,,,,,
2743994,1501038846532,,,,,,,,,0,2430,0,,,,,,,,,,,,,,,
2744004,1501038846542,3.09,,0.09,-0.03,0.9,-3,-1,5,0,2640,0,,,,,,,,,,,,,,,
2744014,1501038846552,,,,,,,,,0,2715,0,,,,,,,,,,,,,,,
2744024,1501038846562,,,,,,,,,0,2715,0,,,,,,,,,,,,,,,
2744034,1501038846572,,,,,,,,,0,2685,0,,,,,,,,,,,,,,,
2744044,1501038846582,3.13,4.51,0.07,-0.0,0.78,-2,-4,2,0,2835,0,36.113663,-115.146103,0.0,5.836,2037.8,9,3,1.8,0,0.0,-1,0.0,0.0,0.0,0
2744054,1501038846592,,,,,,,,,0,2880,0,,,,,,,,,,,,,,,
2744064,1501038846602,,,,,,,,,0,2895,0,,,,,,,,,,,,,,,
2744074,1501038846612,,,,,,,,,0,2880,0,,,,,,,,,,,,,,,
2744084,1501038846622,3.12,,-0.04,-0.01,0.75,-2,-4,4,0,2820,0,,,,,,,,,,,,,,,
2744094,1501038846632,,,,,,,,,0,3030,0,,,,,,,,,,,,,,,
2744104,1501038846642,,,,,,,,,0,3015,0,,,,,,,,,,,,,,,
2744114,1501038846652,,,,,,,,,0,3015,0,,,,,,,,,,,,,,,
2744124,1501038846662,3.12,,-0.18,-0.03,0.65,-0,0,2,0,3135,0,,,,,,,,,,,,,,,
2744134,1501038846672,,,,,,,,,0,3135,0,,,,,,,,,,,,,,,
2744144,1501038846682,,,,,,,,,0,3180,0,36.113663,-115.146103,0.0,5.836,2037.8,9,3,1.8,0,0.0,-1,0.0,0.0,0.0,0
2744154,1501038846694,,,,,,,,,0,3150,0,,,,,,,,,,,,,,,
2744164,1501038846704,3.13,,-0.13,-0.12,0.56,1,1,-2,0,3240,0,,,,,,,,,,,,,,,
2744174,1501038846714,,,,,,,,,0,3255,0,,,,,,,,,,,,,,,
2744184,1501038846724,,,,,,,,,0,3285,0,,,,,,,,,,,,,,,
2744194,1501038846734,,,,,,,,,0,3225,0,,,,,,,,,,,,,,,
2744204,1501038846744,3.18,,0.01,-0.14,0.39,0,-3,-4,0,3255,0,,,,,,,,,,,,,,,
2744214,1501038846754,,,,,,,,,0,3225,0,,,,,,,,,,,,,,,
2744224,1501038846764,,,,,,,,,0,3195,0,,,,,,,,,,,,,,,
2744234,1501038846774,,,,,,,,,0,3195,0,,,,,,,,,,,,,,,
2744244,1501038846784,3.25,,0.05,-0.0,0.3,-1,-9,-3,0,3225,0,36.113663,-115.146103,0.0,5.836,2037.8,9,3,1.8,0,0.0,-1,0.0,0.0,0.0,0
2744254,1501038846794,,,,,,,,,0,3180,0,,,,,,,,,,,,,,,
2744264,1501038846804,,,,,,,,,0,3165,0,,,,,,,,,,,,,,,
2744274,1501038846814,,,,,,,,,0,3180,0,,,,,,,,,,,,,,,
2744284,1501038846824,3.21,,0.1,0.08,0.3,-2,-11,1,0,3150,0,,,,,,,,,,,,,,,
2744294,1501038846834,,,,,,,,,0,3165,0,,,,,,,,,,,,,,,
2744304,1501038846844,,,,,,,,,0,3135,0,,,,,,,,,,,,,,,
2744314,1501038846854,,,,,,,,,0,3150,0,,,,,,,,,,,,,,,
2744324,1501038846864,3.19,,0.14,0.07,0.42,-3,-8,3,0,3120,0,,,,,,,,,,,,,,,
2744334,1501038846874,,,,,,,,,0,3135,0,,,,,,,,,,,,,,,
2744344,1501038846884,,,,,,,,,0,3090,0,36.113663,-115.146103,0.0,5.836,2037.8,9,3,1.8,0,0.0,-1,0.0,0.0,0.0,0
2744354,1501038846894,,,,,,,,,0,3120,0,,,,,,,,,,,,,,,
2744364,1501038846904,3.17,,0.09,0.01,0.67,-3,-2,5,0,3075,0,,,,,,,,,,,,,,,
2744374,1501038846914,,,,,,,,,0,3090,0,,,,,,,,,,,,,,,
2744384,1501038846924,,,,,,,,,0,3060,0,,,,,,,,,,,,,,,
2744394,1501038846934,,,,,,,,,0,3045,0,,,,,,,,,,,,,,,
2744404,1501038846944,3.15,,-0.01,-0.08,0.92,-3,9,7,0,3015,0,,,,,,,,,,,,,,,
2744414,1501038846954,,,,,,,,,0,3015,0,,,,,,,,,,,,,,,
2744424,1501038846964,,,,,,,,,0,3000,0,,,,,,,,,,,,,,,
2744434,1501038846974,,,,,,,,,0,3000,0,,,,,,,,,,,,,,,
2744444,1501038846984,3.18,,-0.09,-0.15,1.13,-2,12,9,0,2985,0,36.113663,-115.146103,0.0,5.836,2037.8,9,3,1.8,0,0.0,-1,0.0,0.0,0.0,0
2744454,1501038846994,,,,,,,,,0,3000,0,,,,,,,,,,,,,,,
2744464,1501038846998,,,,,,,,,0,2985,0,,,,,,,,,,,,,,,
2744474,1501038847008,,,,,,,,,0,2970,0,,,,,,,,,,,,,,,
2744484,1501038847018,3.18,,-0.22,-0.21,1.29,-1,16,8,0,2955,0,,,,,,,,,,,,,,,
2744494,1501038847028,,,,,,,,,0,2940,0,,,,,,,,,,,,,,,
2744504,1501038847038,,,,,,,,,0,2940,0,,,,,,,,,,,,,,,
2744514,1501038847048,,,,,,,,,0,2970,0,,,,,,,,,,,,,,,
2744524,1501038847058,3.2,,-0.3,-0.25,1.4,-1,17,7,0,2940,0,,,,,,,,,,,,,,,
2744534,1501038847068,,,,,,,,,0,2955,0,,,,,,,,,,,,,,,
2744544,1501038847078,,,,,,,,,0,2910,0,36.113663,-115.146103,0.0,5.836,2037.8,9,3,1.8,0,0.0,-1,0.0,0.0,0.0,0
2744554,1501038847092,,,,,,,,,0,2925,0,,,,,,,,,,,,,,,
2744564,1501038847102,3.29,,-0.28,-0.26,1.52,-1,18,7,0,2895,0,,,,,,,,,,,,,,,
2744574,1501038847112,,,,,,,,,0,2910,0,,,,,,,,,,,,,,,
2744584,1501038847122,,,,,,,,,0,2865,0,,,,,,,,,,,,,,,
2744594,1501038847132,,,,,,,,,0,2895,0,,,,,,,,,,,,,,,
2744604,1501038847142,3.27,,-0.19,-0.26,1.55,-1,16,5,0,2850,0,,,,,,,,,,,,,,,
2744614,1501038847152,,,,,,,,,0,2880,0,,,,,,,,,,,,,,,
2744624,1501038847162,,,,,,,,,0,2835,0,,,,,,,,,,,,,,,
2744634,1501038847172,,,,,,,,,0,2865,0,,,,,,,,,,,,,,,
2744644,1501038847182,3.27,,-0.09,-0.25,1.5,-1,14,5,0,2820,0,36.113663,-115.146103,0.0,5.836,2037.8,9,3,1.8,0,0.0,-1,0.0,0.0,0.0,0
2744654,1501038847194,,,,,,,,,0,2805,0,,,,,,,,,,,,,,,
2744664,1501038847204,,,,,,,,,0,2820,0,,,,,,,,,,,,,,,
