"Interval"|"ms"|0|0|1,"Utc"|"ms"|0|0|1,"Analog1"|""|0.0|5.0|25,"Battery"|"Volts"|0.0|20.0|1,"AccelX"|"G"|-3.0|3.0|25,"AccelY"|"G"|-3.0|3.0|25,"AccelZ"|"G"|-3.0|3.0|25,"Yaw"|"Deg/Sec"|-120|120|25,"Pitch"|"Deg/Sec"|-120|120|25,"Roll"|"Deg/Sec"|-120|120|25,"RPM"|""|0|10000|100,"EngineRPM"|""|0|10000|100,"AxleRpm"|""|0|10000|100,"Latitude"|"Degrees"|-180.0|180.0|10,"Longitude"|"Degrees"|-180.0|180.0|10,"Speed"|"mph"|0.0|150.0|10,"Distance"|"mi"|0.0|0.0|10,"Altitude"|"ft"|0.0|4000.0|10,"GPSSats"|""|0|20|10,"GPSQual"|""|0|5|10,"GPSDOP"|""|0.0|20.0|10,"LapCount"|""|0|0|10,"LapTime"|"Min"|0.0|0.0|10,"Sector"|""|0|0|10,"SectorTime"|"Min"|0.0|0.0|10,"PredTime"|"Min"|0.0|0.0|10,"ElapsedTime"|"Min"|0.0|0.0|10,"CurrentLap"|""|0|0|10
2987394,1501039089937,,,,,,,,,0,1485,0,,,,,,,,,,,,,,,
2987404,1501039089947,3.12,,0.04,0.0,0.79,-3,-10,4,0,1410,0,,,,,,,,,,,,,,,
2987414,1501039089957,,,,,,,,,0,1665,0,,,,,,,,,,,,,,,
2987424,1501039089967,,,,,,,,,0,1635,0,,,,,,,,,,,,,,,
2987434,1501039089977,,,,,,,,,0,1605,0,,,,,,,,,,,,,,,
2987444,1501039089987,3.16,,0.03,0.01,0.81,-3,-9,4,0,1560,0,36.113663,-115.145668,0.0,6.38,2041.8,9,3,1.9,0,0.0,-1,0.0,0.0,0.0,0
2987454,1501039089991,,,,,,,,,0,1530,0,,,,,,,,,,,,,,,
2987464,1501039090001,,,,,,,,,0,1500,0,,,,,,,,,,,,,,,
2987474,1501039090011,,,,,,,,,0,1425,0,,,,,,,,,,,,,,,
2987484,1501039090021,3.16,,-0.01,0.02,0.87,-3,-5,4,0,1590,0,,,,,,,,,,,,,,,
2987494,1501039090031,,,,,,,,,0,1665,0,,,,,,,,,,,,,,,
2987504,1501039090041,,,,,,,,,0,1635,0,,,,,,,,,,,,,,,
2987514,1501039090051,,,,,,,,,0,1605,0,,,,,,,,,,,,,,,
2987524,1501039090061,3.15,,-0.02,-0.0,0.94,-2,-6,4,0,1560,0,,,,,,,,,,,,,,,
2987534,1501039090071,,,,,,,,,0,1530,0,,,,,,,,,,,,,,,
2987544,1501039090081,,,,,,,,,0,1500,0,36.113663,-115.145668,0.0,6.38,2041.8,9,3,1.9,0,0.0,-1,0.0,0.0,0.0,0
2987554,1501039090097,,,,,,,,,0,1425,0,,,,,,,,,,,,,,,
2987564,1501039090107,3.16,,-0.02,-0.04,0.95,-3,1,8,0,1575,0,,,,,,,,,,,,,,,
2987574,1501039090117,,,,,,,,,0,1650,0,,,,,,,,,,,,,,,
2987584,1501039090127,,,,,,,,,0,1620,0,,,,,,,,,,,,,,,
2987594,1501039090137,,,,,,,,,0,1590,0,,,,,,,,,,,,,,,
2987604,1501039090147,3.2,,-0.03,-0.05,1.0,-2,4,7,0,1545,0,,,,,,,,,,,,,,,
2987614,1501039090157,,,,,,,,,0,1515,0,,,,,,,,,,,,,,,
2987624,1501039090167,,,,,,,,,0,1485,0,,,,,,,,,,,,,,,
2987634,1501039090177,,,,,,,,,0,1410,0,,,,,,,,,,,,,,,
2987644,1501039090187,3.23,,-0.0,-0.04,1.11,-3,6,7,0,1575,0,36.113663,-115.145668,0.0,6.38,2041.8,9,3,1.9,0,0.0,-1,0.0,0.0,0.0,0
2987654,1501039090197,,,,,,,,,0,1635,0,,,,,,,,,,,,,,,
2987664,1501039090207,,,,,,,,,0,1575,0,,,,,,,,,,,,,,,
2987674,1501039090217,,,,,,,,,0,1545,0,,,,,,,,,,,,,,,
2987684,1501039090227,3.19,,-0.0,-0.04,1.08,-2,5,7,0,1500,0,,,,,,,,,,,,,,,
2987694,1501039090237,,,,,,,,,0,1500,0,,,,,,,,,,,,,,,
2987704,1501039090247,,,,,,,,,0,1485,0,,,,,,,,,,,,,,,
2987714,1501039090257,,,,,,,,,0,1560,0,,,,,,,,,,,,,,,
2987724,1501039090267,3.24,,0.0,-0.06,1.2,-2,4,5,0,1635,0,,,,,,,,,,,,,,,
2987734,1501039090277,,,,,,,,,0,1605,0,,,,,,,,,,,,,,,
2987744,1501039090287,,,,,,,,,0,1575,0,36.113663,-115.145668,0.0,6.38,2041.8,9,3,1.9,0,0.0,-1,0.0,0.0,0.0,0
2987754,1501039090297,,,,,,,,,0,1545,0,,,,,,,,,,,,,,,
2987764,1501039090307,3.26,,0.0,-0.03,1.16,-2,1,5,0,1500,0,,,,,,,,,,,,,,,
2987774,1501039090317,,,,,,,,,0,1470,0,,,,,,,,,,,,,,,
2987784,1501039090327,,,,,,,,,0,1395,0,,,,,,,,,,,,,,,
2987794,1501039090337,,,,,,,,,0,1560,0,,,,,,,,,,,,,,,
2987804,1501039090347,3.24,,0.01,-0.05,1.13,-1,-1,3,0,1650,0,,,,,,,,,,,,,,,
2987814,1501039090357,,,,,,,,,0,1620,0,,,,,,,,,,,,,,,
2987824,1501039090367,,,,,,,,,0,1575,0,,,,,,,,,,,,,,,
2987834,1501039090377,,,,,,,,,0,1545,0,,,,,,,,,,,,,,,
2987844,1501039090387,3.24,,0.02,-0.02,1.08,-1,-2,3,0,1515,0,36.113663,-115.145668,0.0,6.38,2041.8,9,3,1.9,0,0.0,-1,0.0,0.0,0.0,0
2987854,1501039090397,,,,,,,,,0,1485,0,,,,,,,,,,,,,,,
2987864,1501039090407,,,,,,,,,0,1410,0,,,,,,,,,,,,,,,
2987874,1501039090417,,,,,,,,,0,1575,0,,,,,,,,,,,,,,,
2987884,1501039090427,3.25,,0.04,-0.02,1.05,-1,-6,4,0,1650,0,,,,,,,,,,,,,,,
2987894,1501039090437,,,,,,,,,0,1620,0,,,,,,,,,,,,,,,
2987904,1501039090447,,,,,,,,,0,1590,0,,,,,,,,,,,,,,,
2987914,1501039090457,,,,,,,,,0,1560,0,,,,,,,,,,,,,,,
2987924,1501039090467,3.25,,0.04,-0.02,1.0,-1,-7,5,0,1530,0,,,,,,,,,,,,,,,
2987934,1501039090477,,,,,,,,,0,1500,0,,,,,,,,,,,,,,,
2987944,1501039090487,,,,,,,,,0,1410,0,36.113663,-115.145668,0.0,6.38,2041.8,9,3,1.9,0,0.0,-1,0.0,0.0,0.0,0
2987954,1501039090497,,,,,,,,,0,1575,0,,,,,,,,,,,,,,,
2987964,1501039090507,3.25,,0.04,-0.0,0.96,-1,-10,5,0,1635,0,,,,,,,,,,,,,,,
2987974,1501039090517,,,,,,,,,0,1590,0,,,,,,,,,,,,,,,
2987984,1501039090527,,,,,,,,,0,1560,0,,,,,,,,,,,,,,,
2987994,1501039090537,,,,,,,,,0,1530,0,,,,,,,,,,,,,,,
2988004,1501039090547,3.2,,0.0,0.0,0.99,-1,-9,5,0,1485,0,,,,,,,,,,,,,,,
2988014,1501039090557,,,,,,,,,0,1425,0,,,,,,,,,,,,,,,
2988024,1501039090567,,,,,,,,,0,1575,0,,,,,,,,,,,,,,,
2988034,1501039090577,,,,,,,,,0,1650,0,,,,,,,,,,,,,,,
2988044,1501039090587,3.23,4.5,-0.03,0.0,0.9,-1,-9,4,0,1635,0,36.113663,-115.145668,0.0,6.38,2041.8,9,3,1.9,0,0.0,-1,0.0,0.0,0.0,0
2988054,1501039090597,,,,,,,,,0,1605,0,,,,,,,,,,,,,,,
2988064,1501039090607,,,,,,,,,0,1560,0,,,,,,,,,,,,,,,
2988074,1501039090617,,,,,,,,,0,1530,0,,,,,,,,,,,,,,,
2988084,1501039090627,3.21,,-0.04,-0.0,0.94,-1,-6,4,0,1500,0,,,,,,,,,,,,,,,
2988094,1501039090637,,,,,,,,,0,1425,0,,,,,,,,,,,,,,,
2988104,1501039090647,,,,,,,,,0,1575,0,,,,,,,,,,,,,,,
2988114,1501039090657,,,,,,,,,0,1650,0,,,,,,,,,,,,,,,
2988124,1501039090667,3.21,,-0.07,-0.0,0.95,-1,-4,5,0,1635,0,,,,,,,,,,,,,,,
2988134,1501039090677,,,,,,,,,0,1590,0,,,,,,,,,,,,,,,
2988144,1501039090687,,,,,,,,,0,1560,0,36.113663,-115.145668,0.0,6.38,2041.8,9,3,1.9,0,0.0,-1,0.0,0.0,0.0,0
2988154,1501039090696,,,,,,,,,0,1530,0,,,,,,,,,,,,,,,
2988164,1501039090706,3.21,,-0.04,-0.03,1.04,-2,-2,6,0,1500,0,,,,,,,,,,,,,,,
2988174,1501039090716,,,,,,,,,0,1425,0,,,,,,,,,,,,,,,
2988184,1501039090726,,,,,,,,,0,1575,0,,,,,,,,,,,,,,,
2988194,1501039090736,,,,,,,,,0,1650,0,,,,,,,,,,,,,,,
2988204,1501039090746,3.19,,-0.03,-0.03,1.01,-3,1,6,0,1590,0,,,,,,,,,,,,,,,
2988214,1501039090756,,,,,,,,,0,1560,0,,,,,,,,,,,,,,,
2988224,1501039090766,,,,,,,,,0,1530,0,,,,,,,,,,,,,,,
2988234,1501039090776,,,,,,,,,0,1530,0,,,,,,,,,,,,,,,
2988244,1501039090786,3.17,,-0.02,-0.04,1.06,-2,-1,4,0,1410,0,36.113663,-115.145668,0.0,6.38,2041.8,9,3,1.9,0,0.0,-1,0.0,0.0,0.0,0
2988254,1501039090796,,,,,,,,,0,1575,0,,,,,,,,,,,,,,,
2988264,1501039090806,,,,,,,,,0,1650,0,,,,,,,,,,,,,,,
2988274,1501039090816,,,,,,,,,0,1635,0,,,,,,,,,,,,,,,
2988284,1501039090826,3.19,,-0.01,-0.03,1.13,-2,0,3,0,1605,0,,,,,,,,,,,,,,,
2988294,1501039090836,,,,,,,,,0,1560,0,,,,,,,,,,,,,,,
2988304,1501039090846,,,,,,,,,0,1530,0,,,,,,,,,,,,,,,
2988314,1501039090856,,,,,,,,,0,1500,0,,,,,,,,,,,,,,,
2988324,1501039090866,3.2,,-0.0,-0.04,1.05,-1,-3,3,0,1425,0,,,,,,,,,,,,,,,
2988334,1501039090876,,,,,,,,,0,1575,0,,,,,,,,,,,,,,,
2988344,1501039090886,,,,,,,,,0,1665,0,36.113663,-115.145668,0.0,6.38,2041.8,9,3,1.9,0,0.0,-1,0.0,0.0,0.0,0
2988354,1501039090896,,,,,,,,,0,1635,0,,,,,,,,,,,,,,,
2988364,1501039090906,3.21,,0.04,-0.03,0.99,-1,-4,3,0,1590,0,,,,,,,,,,,,,,,
2988374,1501039090916,,,,,,,,,0,1560,0,,,,,,,,,,,,,,,
2988384,1501039090926,,,,,,,,,0,1530,0,,,,,,,,,,,,,,,
2988394,1501039090936,,,,,,,,,0,1500,0,,,,,,,,,,,,,,,
2988404,1501039090946,3.18,,0.05,-0.03,0.9,-1,-7,3,0,1425,0,,,,,,,,,,,,,,,
2988414,1501039090956,,,,,,,,,0,1575,0,,,,,,,,,,,,,,,
2988424,1501039090966,,,,,,,,,0,1665,0,,,,,,,,,,,,,,,
2988434,1501039090976,,,,,,,,,0,1635,0,,,,,,,,,,,,,,,
2988444,1501039090986,3.19,,0.03,-0.01,0.95,-1,-9,4,0,1605,0,36.113663,-115.145668,0.0,6.38,2041.8,9,3,1.9,0,0.0,-1,0.0,0.0,0.0,0
2988454,1501039090996,,,,,,,,,0,1560,0,,,,,,,,,,,,,,,
2988464,1501039091000,,,,,,,,,0,1530,0,,,,,,,,,,,,,,,
2988474,1501039091010,,,,,,,,,0,1500,0,,,,,,,,,,,,,,,
2988484,1501039091020,3.14,,-0.0,-0.0,0.89,-1,-10,3,0,1575,0,,,,,,,,,,,,,,,
2988494,1501039091030,,,,,,,,,0,1650,0,,,,,,,,,,,,,,,
2988504,1501039091040,,,,,,,,,0,1620,0,,,,,,,,,,,,,,,
2988514,1501039091050,,,,,,,,,0,1590,0,,,,,,,,,,,,,,,
2988524,1501039091060,3.2,,-0.02,-0.01,0.94,-1,-9,3,0,1560,0,,,,,,,,,,,,,,,
2988534,1501039091070,,,,,,,,,0,1530,0,,,,,,,,,,,,,,,
2988544,1501039091080,,,,,,,,,0,1485,0,36.113663,-115.145668,0.0,6.38,2041.8,9,3,1.9,0,0.0,-1,0.0,0.0,0.0,0
2988554,1501039091096,,,,,,,,,0,1410,0,,,,,,,,,,,,,,,
2988564,1501039091106,3.21,,-0.05,0.01,0.98,-2,-5,5,0,1575,0,,,,,,,,,,,,,,,
2988574,1501039091116,,,,,,,,,0,1650,0,,,,,,,,,,,,,,,
2988584,1501039091126,,,,,,,,,0,1620,0,,,,,,,,,,,,,,,
2988594,1501039091136,,,,,,,,,0,1590,0,,,,,,,,,,,,,,,
2988604,1501039091146,3.21,,-0.05,-0.02,0.99,-1,-4,3,0,1545,0,,,,,,,,,,,,,,,
2988614,1501039091156,,,,,,,,,0,1515,0,,,,,,,,,,,,,,,
2988624,1501039091166,,,,,,,,,0,1485,0,,,,,,,,,,,,,,,
2988634,1501039091176,,,,,,,,,0,1410,0,,,,,,,,,,,,,,,
2988644,1501039091186,3.21,,-0.01,-0.02,1.03,-2,0,3,0,1575,0,36.113663,-115.145668,0.0,6.38,2041.8,9,3,1.9,0,0.0,-1,0.0,0.0,0.0,0
2988654,1501039091198,,,,,,,,,0,1650,0,,,,,,,,,,,,,,,
2988664,1501039091208,,,,,,,,,0,1620,0,,,,,,,,,,,,,,,
2988674,1501039091218,,,,,,,,,0,1590,0,,,,,,,,,,,,,,,
2988684,1501039091228,3.21,,-0.01,-0.05,1.02,-2,-0,3,0,1545,0,,,,,,,,,,,,,,,
2988694,1501039091238,,,,,,,,,0,1515,0,,,,,,,,,,,,,,,
2988704,1501039091248,,,,,,,,,0,1485,0,,,,,,,,,,,,,,,
2988714,1501039091258,,,,,,,,,0,1410,0,,,,,,,,,,,,,,,
2988724,1501039091268,3.16,,0.0,-0.05,1.15,-2,0,1,0,1650,0,,,,,,,,,,,,,,,
2988734,1501039091278,,,,,,,,,0,1620,0,,,,,,,,,,,,,,,
2988744,1501039091288,,,,,,,,,0,1590,0,36.113663,-115.145668,0.0,6.38,2041.8,9,3,2.0,0,0.0,-1,0.0,0.0,0.0,0
2988754,1501039091298,,,,,,,,,0,1545,0,,,,,,,,,,,,,,,
2988764,1501039091308,3.21,,0.0,-0.02,1.1,-2,-0,2,0,1515,0,,,,,,,,,,,,,,,
2988774,1501039091318,,,,,,,,,0,1485,0,,,,,,,,,,,,,,,
2988784,1501039091328,,,,,,,,,0,1410,0,,,,,,,,,,,,,,,
2988794,1501039091338,,,,,,,,,0,1560,0,,,,,,,,,,,,,,,
2988804,1501039091348,3.21,,0.0,-0.03,1.2,-1,-1,1,0,1650,0,,,,,,,,,,,,,,,
2988814,1501039091358,,,,,,,,,0,1620,0,,,,,,,,,,,,,,,
2988824,1501039091368,,,,,,,,,0,1590,0,,,,,,,,,,,,,,,
2988834,1501039091378,,,,,,,,,0,1545,0,,,,,,,,,,,,,,,
2988844,1501039091388,3.22,,0.02,0.01,1.14,-1,-2,1,0,1515,0,36.113663,-115.145668,0.0,6.38,2041.8,9,3,2.0,0,0.0,-1,0.0,0.0,0.0,0
2988854,1501039091398,,,,,,,,,0,1485,0,,,,,,,,,,,,,,,
2988864,1501039091408,,,,,,,,,0,1395,0,,,,,,,,,,,,,,,
2988874,1501039091418,,,,,,,,,0,1560,0,,,,,,,,,,,,,,,
2988884,1501039091428,3.23,,0.07,-0.02,1.13,-0,-4,1,0,1635,0,,,,,,,,,,,,,,,
2988894,1501039091438,,,,,,,,,0,1605,0,,,,,,,,,,,,,,,
2988904,1501039091448,,,,,,,,,0,1575,0,,,,,,,,,,,,,,,
2988914,1501039091458,,,,,,,,,0,1530,0,,,,,,,,,,,,,,,
2988924,1501039091468,3.24,,0.14,-0.0,1.1,-0,-7,2,0,1485,0,,,,,,,,,,,,,,,
2988934,1501039091478,,,,,,,,,0,1440,0,,,,,,,,,,,,,,,
2988944,1501039091488,,,,,,,,,0,1320,0,36.113663,-115.145668,0.0,6.38,2041.8,9,3,2.0,0,0.0,-1,0.0,0.0,0.0,0
2988954,1501039091498,,,,,,,,,0,1530,0,,,,,,,,,,,,,,,
2988964,1501039091508,3.28,,0.21,0.02,1.1,1,-11,2,0,1635,0,,,,,,,,,,,,,,,
2988974,1501039091518,,,,,,,,,0,1575,0,,,,,,,,,,,,,,,
2988984,1501039091528,,,,,,,,,0,1530,0,,,,,,,,,,,,,,,
2988994,1501039091538,,,,,,,,,0,1485,0,,,,,,,,,,,,,,,
2989004,1501039091548,3.22,,0.15,0.04,0.96,1,-12,3,0,1455,0,,,,,,,,,,,,,,,
2989014,1501039091558,,,,,,,,,0,1410,0,,,,,,,,,,,,,,,
2989024,1501039091568,,,,,,,,,0,1305,0,,,,,,,,,,,,,,,
2989034,1501039091578,,,,,,,,,0,1500,0,,,,,,,,,,,,,,,
2989044,1501039091588,3.18,4.47,0.16,0.02,0.88,2,-14,3,0,1590,0,36.113663,-115.145668,0.0,6.38,2041.8,9,3,2.0,0,0.0,-1,0.0,0.0,0.0,0
2989054,1501039091598,,,,,,,,,0,1575,0,,,,,,,,,,,,,,,
2989064,1501039091608,,,,,,,,,0,1530,0,,,,,,,,,,,,,,,
2989074,1501039091618,,,,,,,,,0,1485,0,,,,,,,,,,,,,,,
2989084,1501039091628,3.18,,0.16,0.05,0.69,2,-14,3,0,1440,120,,,,,,,,,,,,,,,
2989094,1501039091638,,,,,,,,,0,1380,120,,,,,,,,,,,,,,,
2989104,1501039091648,,,,,,,,,0,1260,120,,,,,,,,,,,,,,,
2989114,1501039091658,,,,,,,,,0,1440,120,,,,,,,,,,,,,,,
2989124,1501039091668,3.06,,0.23,0.03,0.66,5,-15,4,0,1545,120,,,,,,,,,,,,,,,
2989134,1501039091678,,,,,,,,,0,1500,120,,,,,,,,,,,,,,,
2989144,1501039091688,,,,,,,,,0,1455,120,36.113663,-115.145668,0.0,6.38,2041.8,9,3,2.0,0,0.0,-1,0.0,0.0,0.0,0
2989154,1501039091695,,,,,,,,,0,1410,120,,,,,,,,,,,,,,,
2989164,1501039091705,3.01,,0.26,0.01,0.64,9,-14,3,0,1410,120,,,,,,,,,,,,,,,
2989174,1501039091715,,,,,,,,,0,1380,120,,,,,,,,,,,,,,,
2989184,1501039091725,,,,,,,,,0,1335,120,,,,,,,,,,,,,,,
2989194,1501039091735,,,,,,,,,0,1230,120,,,,,,,,,,,,,,,
2989204,1501039091745,2.98,,0.33,0.0,0.71,8,-11,3,0,1440,120,,,,,,,,,,,,,,,
2989214,1501039091755,,,,,,,,,0,1560,120,,,,,,,,,,,,,,,
2989224,1501039091765,,,,,,,,,0,1530,120,,,,,,,,,,,,,,,
2989234,1501039091775,,,,,,,,,0,1500,10000000,,,,,,,,,,,,,,,
2989244,1501039091785,2.98,,0.36,-0.03,0.8,6,-9,2,0,1470,0,36.113663,-115.145668,1.43,6.38,2038.9,9,3,2.0,0,0.0,-1,0.0,0.0,0.0,0
2989254,1501039091797,,,,,,,,,0,1440,0,,,,,,,,,,,,,,,
2989264,1501039091807,,,,,,,,,0,1410,0,,,,,,,,,,,,,,,
2989274,1501039091817,,,,,,,,,0,1305,0,,,,,,,,,,,,,,,
2989284,1501039091827,3.05,,0.39,-0.04,0.81,5,-6,3,0,1530,360,,,,,,,,,,,,,,,
2989294,1501039091837,,,,,,,,,0,1650,360,,,,,,,,,,,,,,,
2989304,1501039091847,,,,,,,,,0,1635,360,,,,,,,,,,,,,,,
2989314,1501039091857,,,,,,,,,0,1590,360,,,,,,,,,,,,,,,
2989324,1501039091867,3.08,,0.41,-0.0,0.89,4,-3,3,0,1575,360,,,,,,,,,,,,,,,
2989334,1501039091877,,,,,,,,,0,1560,360,,,,,,,,,,,,,,,
2989344,1501039091887,,,,,,,,,0,1530,360,36.113663,-115.145668,2.39,6.38,2039.1,9,3,2.0,0,0.0,-1,0.0,0.0,0.0,0
2989354,1501039091897,,,,,,,,,0,1665,360,,,,,,,,,,,,,,,
2989364,1501039091907,3.06,,0.4,0.0,1.03,2,0,4,0,1800,360,,,,,,,,,,,,,,,
2989374,1501039091917,,,,,,,,,0,1785,360,,,,,,,,,,,,,,,
2989384,1501039091927,,,,,,,,,0,1755,360,,,,,,,,,,,,,,,
2989394,1501039091937,,,,,,,,,0,1740,360,,,,,,,,,,,,,,,
2989404,1501039091947,3.07,,0.42,-0.01,1.09,1,-0,2,0,1725,0,,,,,,,,,,,,,,,
2989414,1501039091957,,,,,,,,,0,1605,0,,,,,,,,,,,,,,,
2989424,1501039091967,,,,,,,,,0,1830,0,,,,,,,,,,,,,,,
2989434,1501039091977,,,,,,,,,0,1935,150,,,,,,,,,,,,,,,
2989444,1501039091987,3.08,,0.39,-0.03,1.0,1,-1,2,0,1920,150,36.113663,-115.145668,2.79,6.38,2039.1,9,3,2.0,0,0.0,-1,0.0,0.0,0.0,0
2989454,1501039091991,,,,,,,,,0,1875,150,,,,,,,,,,,,,,,
2989464,1501039092001,,,,,,,,,0,1860,150,,,,,,,,,,,,,,,
2989474,1501039092011,,,,,,,,,0,1830,150,,,,,,,,,,,,,,,
2989484,1501039092021,3.08,,0.39,-0.05,0.94,1,-1,4,0,1755,150,,,,,,,,,,,,,,,
2989494,1501039092031,,,,,,,,,0,2055,150,,,,,,,,,,,,,,,
2989504,1501039092041,,,,,,,,,0,2055,150,,,,,,,,,,,,,,,
2989514,1501039092051,,,,,,,,,0,2025,150,,,,,,,,,,,,,,,
2989524,1501039092061,3.11,,0.34,-0.07,0.81,0,1,4,0,1980,150,,,,,,,,,,,,,,,
2989534,1501039092071,,,,,,,,,0,1965,150,,,,,,,,,,,,,,,
2989544,1501039092081,,,,,,,,,0,2070,150,36.113663,-115.145668,3.57,6.38,2039.0,9,3,2.0,0,0.0,-1,0.0,0.0,0.0,0
2989554,1501039092099,,,,,,,,,0,2160,150,,,,,,,,,,,,,,,
2989564,1501039092109,3.12,,0.31,-0.06,0.7,0,1,5,0,2160,240,,,,,,,,,,,,,,,
2989574,1501039092119,,,,,,,,,0,2100,240,,,,,,,,,,,,,,,
2989584,1501039092129,,,,,,,,,0,2115,240,,,,,,,,,,,,,,,
2989594,1501039092139,,,,,,,,,0,2010,240,,,,,,,,,,,,,,,
2989604,1501039092149,3.13,,0.37,-0.02,0.7,-1,-4,6,0,2175,240,,,,,,,,,,,,,,,
2989614,1501039092159,,,,,,,,,0,2265,240,,,,,,,,,,,,,,,
2989624,1501039092169,,,,,,,,,0,2235,240,,,,,,,,,,,,,,,
2989634,1501039092179,,,,,,,,,0,2205,240,,,,,,,,,,,,,,,
2989644,1501039092189,3.14,,0.32,-0.02,0.6,-0,-2,6,0,2160,240,36.113663,-115.145676,4.34,6.38,2038.9,9,3,2.0,0,0.0,-1,0.0,0.0,0.0,0
2989654,1501039092199,,,,,,,,,0,2100,240,,,,,,,,,,,,,,,
2989664,1501039092209,,,,,,,,,0,2340,10000000,,,,,,,,,,,,,,,
2989674,1501039092219,,,,,,,,,0,2325,400,,,,,,,,,,,,,,,
2989684,1501039092229,3.11,,0.29,0.0,0.55,-1,-3,7,0,2280,400,,,,,,,,,,,,,,,
2989694,1501039092239,,,,,,,,,0,2235,400,,,,,,,,,,,,,,,
2989704,1501039092249,,,,,,,,,0,2175,400,,,,,,,,,,,,,,,
2989714,1501039092259,,,,,,,,,0,2415,400,,,,,,,,,,,,,,,
2989724,1501039092269,3.01,,0.23,-0.01,0.71,-1,2,6,0,2385,400,,,,,,,,,,,,,,,
2989734,1501039092279,,,,,,,,,0,2355,400,,,,,,,,,,,,,,,
2989744,1501039092289,,,,,,,,,0,2355,400,36.113663,-115.145676,4.89,6.38,2038.8,9,3,2.0,0,0.0,-1,0.0,0.0,0.0,0
2989754,1501039092299,,,,,,,,,0,2250,400,,,,,,,,,,,,,,,
2989764,1501039092309,3.16,,0.34,-0.01,0.85,-2,-2,4,0,2505,810,,,,,,,,,,,,,,,
2989774,1501039092319,,,,,,,,,0,2460,810,,,,,,,,,,,,,,,
2989784,1501039092329,,,,,,,,,0,2415,810,,,,,,,,,,,,,,,
2989794,1501039092339,,,,,,,,,0,2400,810,,,,,,,,,,,,,,,
2989804,1501039092349,3.15,,0.29,-0.07,0.83,-1,-2,1,0,2325,810,,,,,,,,,,,,,,,
2989814,1501039092359,,,,,,,,,0,2580,810,,,,,,,,,,,,,,,
2989824,1501039092369,,,,,,,,,0,2520,810,,,,,,,,,,,,,,,
2989834,1501039092379,,,,,,,,,0,2490,810,,,,,,,,,,,,,,,
2989844,1501039092389,3.07,,0.33,-0.07,1.04,-1,-0,-1,0,2460,810,36.113663,-115.145676,5.43,6.381,2038.7,9,3,2.0,0,0.0,-1,0.0,0.0,0.0,0
2989854,1501039092399,,,,,,,,,0,2550,2100,,,,,,,,,,,,,,,
2989864,1501039092409,,,,,,,,,0,2640,2100,,,,,,,,,,,,,,,
2989874,1501039092419,,,,,,,,,0,2580,2100,,,,,,,,,,,,,,,
2989884,1501039092429,3.11,,0.31,-0.08,0.9,-0,-5,1,0,2550,2100,,,,,,,,,,,,,,,
2989894,1501039092439,,,,,,,,,0,2520,2100,,,,,,,,,,,,,,,
2989904,1501039092449,,,,,,,,,0,2610,2100,,,,,,,,,,,,,,,
2989914,1501039092459,,,,,,,,,0,2670,2100,,,,,,,,,,,,,,,
2989924,1501039092469,3.08,,0.31,0.01,0.82,-1,-3,4,0,2625,2100,,,,,,,,,,,,,,,
2989934,1501039092479,,,,,,,,,0,2610,2100,,,,,,,,,,,,,,,
2989944,1501039092489,,,,,,,,,0,2535,120,36.113667,-115.145676,5.77,6.381,2038.5,9,3,2.0,0,0.0,-1,0.0,0.0,0.0,0
2989954,1501039092499,,,,,,,,,0,2730,120,,,,,,,,,,,,,,,
2989964,1501039092509,3.09,,0.27,-0.06,0.97,-1,1,6,0,2685,120,,,,,,,,,,,,,,,
2989974,1501039092519,,,,,,,,,0,2655,120,,,,,,,,,,,,,,,
2989984,1501039092529,,,,,,,,,0,2625,120,,,,,,,,,,,,,,,
2989994,1501039092539,,,,,,,,,0,2685,120,,,,,,,,,,,,,,,
2990004,1501039092549,3.12,,0.32,-0.05,1.08,-1,-3,5,0,2745,120,,,,,,,,,,,,,,,
2990014,1501039092559,,,,,,,,,0,2685,130,,,,,,,,,,,,,,,
2990024,1501039092569,,,,,,,,,0,2685,130,,,,,,,,,,,,,,,
2990034,1501039092579,,,,,,,,,0,2595,130,,,,,,,,,,,,,,,
2990044,1501039092589,3.18,4.49,0.35,0.03,1.06,-3,-6,7,0,2790,130,36.113667,-115.145691,6.66,6.381,2038.4,9,3,2.0,0,0.0,-1,0.0,0.0,0.0,0
2990054,1501039092599,,,,,,,,,0,2730,130,,,,,,,,,,,,,,,
2990064,1501039092609,,,,,,,,,0,2700,130,,,,,,,,,,,,,,,
2990074,1501039092619,,,,,,,,,0,2625,130,,,,,,,,,,,,,,,
2990084,1501039092629,3.02,,0.37,-0.01,1.02,-3,-5,8,0,2745,130,,,,,,,,,,,,,,,
2990094,1501039092639,,,,,,,,,0,2790,130,,,,,,,,,,,,,,,
2990104,1501039092649,,,,,,,,,0,2745,130,,,,,,,,,,,,,,,
2990114,1501039092659,,,,,,,,,0,2685,130,,,,,,,,,,,,,,,
2990124,1501039092669,3.13,,0.36,0.01,0.82,-2,-1,5,0,2775,130,,,,,,,,,,,,,,,
2990134,1501039092679,,,,,,,,,0,2775,130,,,,,,,,,,,,,,,
2990144,1501039092689,,,,,,,,,0,2790,130,36.113667,-115.145691,7.35,6.381,2038.3,9,3,2.0,0,0.0,-1,0.0,0.0,0.0,0
2990154,1501039092698,,,,,,,,,0,2715,130,,,,,,,,,,,,,,,
2990164,1501039092708,3.13,,0.32,0.04,0.72,-3,-0,5,0,2655,140,,,,,,,,,,,,,,,
2990174,1501039092718,,,,,,,,,0,2805,140,,,,,,,,,,,,,,,
2990184,1501039092728,,,,,,,,,0,2805,140,,,,,,,,,,,,,,,
2990194,1501039092738,,,,,,,,,0,2715,140,,,,,,,,,,,,,,,
2990204,1501039092748,3.16,,0.28,0.0,0.86,-0,-3,-3,0,2685,140,,,,,,,,,,,,,,,
2990214,1501039092758,,,,,,,,,0,2790,140,,,,,,,,,,,,,,,
2990224,1501039092768,,,,,,,,,0,2805,150,,,,,,,,,,,,,,,
2990234,1501039092778,,,,,,,,,0,2775,150,,,,,,,,,,,,,,,
2990244,1501039092788,3.15,,0.34,-0.04,0.93,-2,-3,-3,0,2700,150,36.113667,-115.145691,8.01,6.381,2038.4,9,3,2.0,0,0.0,-1,0.0,0.0,0.0,0
2990254,1501039092798,,,,,,,,,0,2805,150,,,,,,,,,,,,,,,
2990264,1501039092808,,,,,,,,,0,2820,150,,,,,,,,,,,,,,,
2990274,1501039092818,,,,,,,,,0,2805,150,,,,,,,,,,,,,,,
2990284,1501039092828,3.05,,0.33,-0.03,0.92,-2,-5,-2,0,2775,150,,,,,,,,,,,,,,,
2990294,1501039092838,,,,,,,,,0,2670,150,,,,,,,,,,,,,,,
2990304,1501039092848,,,,,,,,,0,2865,150,,,,,,,,,,,,,,,
2990314,1501039092858,,,,,,,,,0,2805,150,,,,,,,,,,,,,,,
2990324,1501039092868,3.14,,0.33,0.01,0.82,-2,-5,-2,0,2760,150,,,,,,,,,,,,,,,
2990334,1501039092878,,,,,,,,,0,2685,150,,,,,,,,,,,,,,,
2990344,1501039092888,,,,,,,,,0,2790,150,36.113667,-115.145691,8.72,6.381,2038.3,9,3,1.9,0,0.0,-1,0.0,0.0,0.0,0
2990354,1501039092896,,,,,,,,,0,2835,160,,,,,,,,,,,,,,,
2990364,1501039092906,3.17,,0.32,0.01,0.68,-4,-5,1,0,2775,160,,,,,,,,,,,,,,,
2990374,1501039092916,,,,,,,,,0,2745,160,,,,,,,,,,,,,,,
2990384,1501039092926,,,,,,,,,0,2790,160,,,,,,,,,,,,,,,
2990394,1501039092936,,,,,,,,,0,2835,160,,,,,,,,,,,,,,,
2990404,1501039092946,3.18,,0.34,-0.03,0.58,-2,-5,2,0,2790,170,,,,,,,,,,,,,,,
2990414,1501039092956,,,,,,,,,0,2775,170,,,,,,,,,,,,,,,
2990424,1501039092966,,,,,,,,,0,2700,170,,,,,,,,,,,,,,,
2990434,1501039092976,,,,,,,,,0,2850,170,,,,,,,,,,,,,,,
2990444,1501039092986,3.1,,0.27,0.04,0.66,-1,-3,0,0,2835,170,36.113667,-115.145706,9.0,6.382,2038.5,9,3,1.9,0,0.0,-1,0.0,0.0,0.0,0
2990454,1501039092996,,,,,,,,,0,2745,170,,,,,,,,,,,,,,,
2990464,1501039093000,,,,,,,,,0,2700,170,,,,,,,,,,,,,,,
2990474,1501039093010,,,,,,,,,0,2850,170,,,,,,,,,,,,,,,
2990484,1501039093020,3.11,,0.26,0.12,0.83,0,0,-4,0,2835,170,,,,,,,,,,,,,,,
2990494,1501039093030,,,,,,,,,0,2805,170,,,,,,,,,,,,,,,
2990504,1501039093040,,,,,,,,,0,2745,170,,,,,,,,,,,,,,,
2990514,1501039093050,,,,,,,,,0,2805,170,,,,,,,,,,,,,,,
2990524,1501039093060,3.14,,0.24,0.09,0.98,-2,-0,-2,0,2850,170,,,,,,,,,,,,,,,
2990534,1501039093070,,,,,,,,,0,2805,170,,,,,,,,,,,,,,,
2990544,1501039093080,,,,,,,,,0,2760,170,36.113667,-115.145706,9.7,6.382,2038.7,9,3,1.9,0,0.0,-1,0.0,0.0,0.0,0
2990554,1501039093094,,,,,,,,,0,2805,170,,,,,,,,,,,,,,,
2990564,1501039093104,3.05,,0.29,0.08,0.99,-3,-2,2,0,2850,170,,,,,,,,,,,,,,,
2990574,1501039093114,,,,,,,,,0,2835,180,,,,,,,,,,,,,,,
2990584,1501039093124,,,,,,,,,0,2790,180,,,,,,,,,,,,,,,
2990594,1501039093134,,,,,,,,,0,2715,180,,,,,,,,,,,,,,,
2990604,1501039093144,3.1,,0.34,0.01,0.96,-3,-5,6,0,2895,180,,,,,,,,,,,,,,,
2990614,1501039093154,,,,,,,,,0,2865,180,,,,,,,,,,,,,,,
2990624,1501039093164,,,,,,,,,0,2790,180,,,,,,,,,,,,,,,
2990634,1501039093174,,,,,,,,,0,2730,180,,,,,,,,,,,,,,,
2990644,1501039093184,3.05,,0.38,-0.04,0.96,-4,-7,7,0,2880,180,36.113667,-115.145714,9.9,6.382,2038.8,9,3,1.9,0,0.0,-1,0.0,0.0,0.0,0
2990654,1501039093196,,,,,,,,,0,2865,180,,,,,,,,,,,,,,,
2990664,1501039093206,,,,,,,,,0,2820,180,,,,,,,,,,,,,,,
2990674,1501039093216,,,,,,,,,0,2745,180,,,,,,,,,,,,,,,
2990684,1501039093226,3.09,,0.35,-0.09,0.71,-3,-6,6,0,2850,190,,,,,,,,,,,,,,,
2990694,1501039093236,,,,,,,,,0,2865,190,,,,,,,,,,,,,,,
2990704,1501039093246,,,,,,,,,0,2820,190,,,,,,,,,,,,,,,
2990714,1501039093256,,,,,,,,,0,2775,190,,,,,,,,,,,,,,,
2990724,1501039093266,3.06,,0.32,-0.01,0.65,-3,-2,5,0,2835,190,,,,,,,,,,,,,,,
2990734,1501039093276,,,,,,,,,0,2895,200,,,,,,,,,,,,,,,
2990744,1501039093286,,,,,,,,,0,2850,200,36.11367,-115.145714,9.79,6.383,2038.6,9,3,1.9,0,0.0,-1,0.0,0.0,0.0,0
2990754,1501039093296,,,,,,,,,0,2790,200,,,,,,,,,,,,,,,
2990764,1501039093306,3.17,,0.25,0.06,0.68,-1,-1,-1,0,2715,200,,,,,,,,,,,,,,,
2990774,1501039093316,,,,,,,,,0,2895,200,,,,,,,,,,,,,,,
2990784,1501039093326,,,,,,,,,0,2865,200,,,,,,,,,,,,,,,
2990794,1501039093336,,,,,,,,,0,2790,200,,,,,,,,,,,,,,,
2990804,1501039093346,3.14,,0.25,-0.03,0.93,-1,0,-5,0,2715,200,,,,,,,,,,,,,,,
2990814,1501039093356,,,,,,,,,0,2880,200,,,,,,,,,,,,,,,
2990824,1501039093366,,,,,,,,,0,2865,200,,,,,,,,,,,,,,,
2990834,1501039093376,,,,,,,,,0,2820,200,,,,,,,,,,,,,,,
2990844,1501039093386,3.2,,0.25,-0.08,1.13,-4,2,-3,0,2760,200,36.11367,-115.145714,11.11,6.383,2038.9,9,3,1.9,0,0.0,-1,0.0,0.0,0.0,0
2990854,1501039093396,,,,,,,,,0,2850,200,,,,,,,,,,,,,,,
2990864,1501039093406,,,,,,,,,0,2880,200,,,,,,,,,,,,,,,
2990874,1501039093416,,,,,,,,,0,2805,210,,,,,,,,,,,,,,,
2990884,1501039093426,3.17,,0.27,-0.04,1.15,-7,0,3,0,2775,210,,,,,,,,,,,,,,,
2990894,1501039093436,,,,,,,,,0,2850,210,,,,,,,,,,,,,,,
2990904,1501039093446,,,,,,,,,0,2880,210,,,,,,,,,,,,,,,
2990914,1501039093456,,,,,,,,,0,2850,210,,,,,,,,,,,,,,,
2990924,1501039093466,3.17,,0.28,-0.08,1.12,-6,-4,5,0,2805,210,,,,,,,,,,,,,,,
2990934,1501039093476,,,,,,,,,0,2730,210,,,,,,,,,,,,,,,
2990944,1501039093486,,,,,,,,,0,2910,210,36.11367,-115.145729,11.7,6.383,2039.2,9,3,1.9,0,0.0,-1,0.0,0.0,0.0,0
2990954,1501039093494,,,,,,,,,0,2880,210,,,,,,,,,,,,,,,
2990964,1501039093504,3.09,,0.3,-0.16,0.96,-7,-8,5,0,2805,210,,,,,,,,,,,,,,,
2990974,1501039093514,,,,,,,,,0,2730,210,,,,,,,,,,,,,,,
2990984,1501039093524,,,,,,,,,0,2880,210,,,,,,,,,,,,,,,
2990994,1501039093534,,,,,,,,,0,2880,210,,,,,,,,,,,,,,,
2991004,1501039093544,3.16,,0.35,-0.2,0.88,-8,-9,6,0,2850,210,,,,,,,,,,,,,,,
2991014,1501039093554,,,,,,,,,0,2775,220,,,,,,,,,,,,,,,
2991024,1501039093564,,,,,,,,,0,2865,220,,,,,,,,,,,,,,,
2991034,1501039093574,,,,,,,,,0,2880,220,,,,,,,,,,,,,,,
2991044,1501039093584,3.16,4.49,0.36,-0.19,0.66,-7,-6,5,0,2835,220,36.113667,-115.145729,12.36,6.383,2039.3,9,3,1.9,0,0.0,-1,0.0,0.0,0.0,0
2991054,1501039093596,,,,,,,,,0,2775,220,,,,,,,,,,,,,,,
2991064,1501039093606,,,,,,,,,0,2850,220,,,,,,,,,,,,,,,
2991074,1501039093616,,,,,,,,,0,2865,220,,,,,,,,,,,,,,,
2991084,1501039093626,3.14,,0.29,-0.09,0.61,-4,-6,3,0,2820,220,,,,,,,,,,,,,,,
2991094,1501039093636,,,,,,,,,0,2805,220,,,,,,,,,,,,,,,
2991104,1501039093646,,,,,,,,,0,2730,220,,,,,,,,,,,,,,,
2991114,1501039093656,,,,,,,,,0,2910,220,,,,,,,,,,,,,,,
2991124,1501039093666,3.14,,0.18,0.01,0.74,-3,-1,-1,0,2880,220,,,,,,,,,,,,,,,
2991134,1501039093676,,,,,,,,,0,2805,220,,,,,,,,,,,,,,,
2991144,1501039093686,,,,,,,,,0,2715,230,36.113667,-115.145744,12.6,6.384,2039.3,9,3,1.9,0,0.0,-1,0.0,0.0,0.0,0
2991154,1501039093697,,,,,,,,,0,2910,230,,,,,,,,,,,,,,,
2991164,1501039093707,3.16,,0.15,-0.03,0.98,-3,-0,-6,0,2865,230,,,,,,,,,,,,,,,
2991174,1501039093717,,,,,,,,,0,2805,230,,,,,,,,,,,,,,,
2991184,1501039093727,,,,,,,,,0,2775,230,,,,,,,,,,,,,,,
2991194,1501039093737,,,,,,,,,0,2850,230,,,,,,,,,,,,,,,
2991204,1501039093747,3.19,,0.15,-0.06,1.08,-5,0,-1,0,2880,230,,,,,,,,,,,,,,,
2991214,1501039093757,,,,,,,,,0,2835,230,,,,,,,,,,,,,,,
2991224,1501039093767,,,,,,,,,0,2775,230,,,,,,,,,,,,,,,
2991234,1501039093777,,,,,,,,,0,2850,230,,,,,,,,,,,,,,,
2991244,1501039093787,3.18,,0.21,-0.07,1.11,-6,-1,3,0,2880,230,36.113667,-115.145744,13.06,6.384,2039.4,9,3,1.9,0,0.0,-1,0.0,0.0,0.0,0
2991254,1501039093795,,,,,,,,,0,2820,230,,,,,,,,,,,,,,,
2991264,1501039093805,,,,,,,,,0,2805,230,,,,,,,,,,,,,,,
2991274,1501039093815,,,,,,,,,0,2715,240,,,,,,,,,,,,,,,
2991284,1501039093825,3.2,,0.25,-0.11,1.1,-6,-4,5,0,2895,240,,,,,,,,,,,,,,,
2991294,1501039093835,,,,,,,,,0,2865,240,,,,,,,,,,,,,,,
2991304,1501039093845,,,,,,,,,0,2805,240,,,,,,,,,,,,,,,
2991314,1501039093855,,,,,,,,,0,2715,230,,,,,,,,,,,,,,,
2991324,1501039093865,3.17,,0.29,-0.17,0.97,-6,-7,7,0,2880,230,,,,,,,,,,,,,,,
2991334,1501039093875,,,,,,,,,0,2850,230,,,,,,,,,,,,,,,
2991344,1501039093885,,,,,,,,,0,2790,230,36.113667,-115.145752,13.98,6.385,2039.3,9,3,1.9,0,0.0,-1,0.0,0.0,0.0,0
2991354,1501039093895,,,,,,,,,0,2775,240,,,,,,,,,,,,,,,
2991364,1501039093905,3.16,,0.32,-0.2,1.0,-6,-6,7,0,2835,240,,,,,,,,,,,,,,,
2991374,1501039093915,,,,,,,,,0,2850,240,,,,,,,,,,,,,,,
2991384,1501039093925,,,,,,,,,0,2805,240,,,,,,,,,,,,,,,
2991394,1501039093935,,,,,,,,,0,2760,240,,,,,,,,,,,,,,,
2991404,1501039093945,3.18,,0.29,-0.11,0.88,-5,-5,6,0,2820,240,,,,,,,,,,,,,,,
2991414,1501039093955,,,,,,,,,0,2850,240,,,,,,,,,,,,,,,
2991424,1501039093965,,,,,,,,,0,2805,240,,,,,,,,,,,,,,,
2991434,1501039093975,,,,,,,,,0,2790,240,,,,,,,,,,,,,,,
2991444,1501039093985,3.18,,0.25,-0.03,0.84,-5,-5,8,0,2715,240,36.113667,-115.145752,14.39,6.385,2039.5,9,3,1.9,0,0.0,-1,0.0,0.0,0.0,0
2991454,1501039093995,,,,,,,,,0,2865,240,,,,,,,,,,,,,,,
2991464,1501039093999,,,,,,,,,0,2835,240,,,,,,,,,,,,,,,
2991474,1501039094009,,,,,,,,,0,2775,250,,,,,,,,,,,,,,,
2991484,1501039094019,3.21,,0.23,-0.01,1.04,-3,-4,3,0,2700,250,,,,,,,,,,,,,,,
2991494,1501039094029,,,,,,,,,0,2865,250,,,,,,,,,,,,,,,
2991504,1501039094039,,,,,,,,,0,2835,250,,,,,,,,,,,,,,,
2991514,1501039094049,,,,,,,,,0,2805,250,,,,,,,,,,,,,,,
2991524,1501039094059,3.23,,0.21,-0.02,1.15,-1,-2,-3,0,2760,250,,,,,,,,,,,,,,,
2991534,1501039094069,,,,,,,,,0,2820,250,,,,,,,,,,,,,,,
2991544,1501039094079,,,,,,,,,0,2865,250,36.113667,-115.145767,14.86,6.385,2039.5,9,3,1.9,0,0.0,-1,0.0,0.0,0.0,0
2991554,1501039094095,,,,,,,,,0,2790,250,,,,,,,,,,,,,,,
2991564,1501039094105,3.19,,0.18,-0.01,1.26,-4,-3,2,0,2745,250,,,,,,,,,,,,,,,
2991574,1501039094115,,,,,,,,,0,2820,250,,,,,,,,,,,,,,,
2991584,1501039094125,,,,,,,,,0,2865,250,,,,,,,,,,,,,,,
2991594,1501039094135,,,,,,,,,0,2835,250,,,,,,,,,,,,,,,
2991604,1501039094145,3.18,,0.22,-0.03,1.27,-4,-6,5,0,2790,250,,,,,,,,,,,,,,,
2991614,1501039094155,,,,,,,,,0,2685,250,,,,,,,,,,,,,,,
2991624,1501039094165,,,,,,,,,0,2865,250,,,,,,,,,,,,,,,
2991634,1501039094175,,,,,,,,,0,2820,260,,,,,,,,,,,,,,,
2991644,1501039094185,3.2,,0.25,-0.12,1.19,-4,-10,6,0,2775,260,36.113667,-115.145782,15.21,6.386,2039.5,9,3,1.9,0,0.0,-1,0.0,0.0,0.0,0
2991654,1501039094193,,,,,,,,,0,2700,260,,,,,,,,,,,,,,,
2991664,1501039094203,,,,,,,,,0,2820,260,,,,,,,,,,,,,,,
2991674,1501039094213,,,,,,,,,0,2835,260,,,,,,,,,,,,,,,
2991684,1501039094223,3.21,,0.3,-0.12,0.98,-5,-9,6,0,2805,260,,,,,,,,,,,,,,,
2991694,1501039094233,,,,,,,,,0,2730,260,,,,,,,,,,,,,,,
2991704,1501039094243,,,,,,,,,0,2820,260,,,,,,,,,,,,,,,
2991714,1501039094253,,,,,,,,,0,2850,260,,,,,,,,,,,,,,,
2991724,1501039094263,3.23,,0.33,-0.08,0.81,-4,-7,10,0,2805,260,,,,,,,,,,,,,,,
2991734,1501039094273,,,,,,,,,0,2745,260,,,,,,,,,,,,,,,
2991744,1501039094283,,,,,,,,,0,2685,270,36.113667,-115.145782,15.7,6.386,2039.4,9,3,1.9,0,0.0,-1,0.0,0.0,0.0,0
2991754,1501039094297,,,,,,,,,0,2865,270,,,,,,,,,,,,,,,
2991764,1501039094307,3.18,,0.24,0.02,0.94,-2,-3,8,0,2820,270,,,,,,,,,,,,,,,
2991774,1501039094317,,,,,,,,,0,2775,270,,,,,,,,,,,,,,,
2991784,1501039094327,,,,,,,,,0,2670,260,,,,,,,,,,,,,,,
2991794,1501039094337,,,,,,,,,0,2880,260,,,,,,,,,,,,,,,
2991804,1501039094347,3.13,,0.22,0.04,1.07,-0,-2,-1,0,2820,260,,,,,,,,,,,,,,,
2991814,1501039094357,,,,,,,,,0,2775,260,,,,,,,,,,,,,,,
2991824,1501039094367,,,,,,,,,0,2730,260,,,,,,,,,,,,,,,
2991834,1501039094377,,,,,,,,,0,2790,260,,,,,,,,,,,,,,,
2991844,1501039094387,3.22,,0.21,0.0,1.22,-2,-0,0,0,2835,260,36.113663,-115.14579,16.18,6.387,2039.4,9,3,1.9,0,0.0,-1,0.0,0.0,0.0,0
2991854,1501039094397,,,,,,,,,0,2790,270,,,,,,,,,,,,,,,
2991864,1501039094407,,,,,,,,,0,2730,270,,,,,,,,,,,,,,,
2991874,1501039094417,,,,,,,,,0,2820,270,,,,,,,,,,,,,,,
2991884,1501039094427,3.13,,0.23,-0.02,1.18,-2,-3,3,0,2835,270,,,,,,,,,,,,,,,
2991894,1501039094437,,,,,,,,,0,2850,270,,,,,,,,,,,,,,,
2991904,1501039094447,,,,,,,,,0,2760,270,,,,,,,,,,,,,,,
2991914,1501039094457,,,,,,,,,0,2700,270,,,,,,,,,,,,,,,
2991924,1501039094467,3.2,,0.23,-0.08,1.08,-3,-5,7,0,2865,270,,,,,,,,,,,,,,,
2991934,1501039094477,,,,,,,,,0,2835,270,,,,,,,,,,,,,,,
2991944,1501039094487,,,,,,,,,0,2790,270,36.113663,-115.14579,16.51,6.387,2039.4,9,3,1.9,0,0.0,-1,0.0,0.0,0.0,0
2991954,1501039094497,,,,,,,,,0,2700,270,,,,,,,,,,,,,,,
2991964,1501039094507,3.15,,0.28,-0.14,1.02,-4,-7,6,0,2820,280,,,,,,,,,,,,,,,
2991974,1501039094517,,,,,,,,,0,2865,280,,,,,,,,,,,,,,,
2991984,1501039094527,,,,,,,,,0,2790,280,,,,,,,,,,,,,,,
2991994,1501039094537,,,,,,,,,0,2760,280,,,,,,,,,,,,,,,
2992004,1501039094547,3.14,,0.31,-0.14,0.67,-3,-7,7,0,2820,270,,,,,,,,,,,,,,,
2992014,1501039094557,,,,,,,,,0,2865,270,,,,,,,,,,,,,,,
2992024,1501039094567,,,,,,,,,0,2805,270,,,,,,,,,,,,,,,
2992034,1501039094577,,,,,,,,,0,2760,280,,,,,,,,,,,,,,,
2992044,1501039094587,3.22,4.49,0.28,-0.07,0.66,-2,-6,9,0,2700,280,36.113663,-115.145805,16.93,6.388,2039.4,9,3,1.9,0,0.0,-1,0.0,0.0,0.0,0
2992054,1501039094597,,,,,,,,,0,2895,280,,,,,,,,,,,,,,,
2992064,1501039094607,,,,,,,,,0,2835,280,,,,,,,,,,,,,,,
2992074,1501039094617,,,,,,,,,0,2805,280,,,,,,,,,,,,,,,
2992084,1501039094627,3.2,,0.2,0.03,0.71,0,-5,4,0,2715,280,,,,,,,,,,,,,,,
2992094,1501039094637,,,,,,,,,0,2895,280,,,,,,,,,,,,,,,
2992104,1501039094647,,,,,,,,,0,2850,280,,,,,,,,,,,,,,,
2992114,1501039094657,,,,,,,,,0,2790,280,,,,,,,,,,,,,,,
2992124,1501039094667,3.21,,0.13,-0.02,0.95,2,-3,-2,0,2760,280,,,,,,,,,,,,,,,
2992134,1501039094677,,,,,,,,,0,2850,280,,,,,,,,,,,,,,,
2992144,1501039094687,,,,,,,,,0,2865,280,36.113663,-115.145821,17.46,6.388,2039.4,9,3,1.9,0,0.0,-1,0.0,0.0,0.0,0
2992154,1501039094696,,,,,,,,,0,2820,280,,,,,,,,,,,,,,,
2992164,1501039094706,3.15,,0.1,-0.02,1.11,-2,-1,4,0,2760,280,,,,,,,,,,,,,,,
2992174,1501039094716,,,,,,,,,0,2835,290,,,,,,,,,,,,,,,
2992184,1501039094726,,,,,,,,,0,2865,290,,,,,,,,,,,,,,,
2992194,1501039094736,,,,,,,,,0,2820,290,,,,,,,,,,,,,,,
2992204,1501039094746,3.1,,0.12,0.0,1.17,-4,-1,9,0,2760,290,,,,,,,,,,,,,,,
2992214,1501039094756,,,,,,,,,0,2715,280,,,,,,,,,,,,,,,
2992224,1501039094766,,,,,,,,,0,2910,280,,,,,,,,,,,,,,,
2992234,1501039094776,,,,,,,,,0,2850,280,,,,,,,,,,,,,,,
2992244,1501039094786,3.17,,0.16,-0.02,1.06,-2,-5,9,0,2805,280,36.113663,-115.145821,17.64,6.389,2039.4,9,3,1.9,0,0.0,-1,0.0,0.0,0.0,0
2992254,1501039094796,,,,,,,,,0,2715,280,,,,,,,,,,,,,,,
2992264,1501039094806,,,,,,,,,0,2910,280,,,,,,,,,,,,,,,
2992274,1501039094816,,,,,,,,,0,2850,290,,,,,,,,,,,,,,,
2992284,1501039094826,3.23,,0.2,-0.08,0.96,-3,-8,10,0,2805,290,,,,,,,,,,,,,,,
2992294,1501039094836,,,,,,,,,0,2730,290,,,,,,,,,,,,,,,
2992304,1501039094846,,,,,,,,,0,2865,290,,,,,,,,,,,,,,,
2992314,1501039094856,,,,,,,,,0,2880,290,,,,,,,,,,,,,,,
2992324,1501039094866,3.24,,0.24,-0.12,0.74,-3,-8,11,0,2850,290,,,,,,,,,,,,,,,
2992334,1501039094876,,,,,,,,,0,2775,290,,,,,,,,,,,,,,,
2992344,1501039094886,,,,,,,,,0,2865,290,36.113663,-115.145828,17.95,6.389,2039.6,9,3,1.9,0,0.0,-1,0.0,0.0,0.0,0
2992354,1501039094896,,,,,,,,,0,2910,290,,,,,,,,,,,,,,,
2992364,1501039094906,3.24,,0.28,-0.08,0.56,-3,-6,11,0,2850,290,,,,,,,,,,,,,,,
2992374,1501039094916,,,,,,,,,0,2805,300,,,,,,,,,,,,,,,
2992384,1501039094926,,,,,,,,,0,2880,300,,,,,,,,,,,,,,,
2992394,1501039094936,,,,,,,,,0,2895,300,,,,,,,,,,,,,,,
2992404,1501039094946,3.15,,0.19,0.05,0.57,-0,-6,9,0,2850,300,,,,,,,,,,,,,,,
2992414,1501039094956,,,,,,,,,0,2820,290,,,,,,,,,,,,,,,
2992424,1501039094966,,,,,,,,,0,2745,290,,,,,,,,,,,,,,,
2992434,1501039094976,,,,,,,,,0,2910,290,,,,,,,,,,,,,,,
2992444,1501039094986,3.2,,0.13,0.11,0.69,1,-5,4,0,2880,300,36.113663,-115.145844,18.29,6.39,2039.7,9,3,1.9,0,0.0,-1,0.0,0.0,0.0,0
2992454,1501039094996,,,,,,,,,0,2835,300,,,,,,,,,,,,,,,
2992464,1501039095000,,,,,,,,,0,2745,300,,,,,,,,,,,,,,,
2992474,1501039095010,,,,,,,,,0,2925,300,,,,,,,,,,,,,,,
2992484,1501039095020,3.21,,0.08,0.07,0.92,3,-3,-6,0,2880,290,,,,,,,,,,,,,,,
2992494,1501039095030,,,,,,,,,0,2835,290,,,,,,,,,,,,,,,
2992504,1501039095040,,,,,,,,,0,2805,290,,,,,,,,,,,,,,,
2992514,1501039095050,,,,,,,,,0,2880,300,,,,,,,,,,,,,,,
2992524,1501039095060,3.21,,0.02,0.06,1.0,1,1,-3,0,2910,300,,,,,,,,,,,,,,,
2992534,1501039095070,,,,,,,,,0,2865,300,,,,,,,,,,,,,,,
2992544,1501039095080,,,,,,,,,0,2835,300,36.113663,-115.145859,18.48,6.39,2039.7,9,3,2.0,0,0.0,-1,0.0,0.0,0.0,0
2992554,1501039095096,,,,,,,,,0,2910,300,,,,,,,,,,,,,,,
2992564,1501039095106,3.22,,0.05,0.04,1.19,-2,1,2,0,2925,300,,,,,,,,,,,,,,,
2992574,1501039095116,,,,,,,,,0,2880,310,,,,,,,,,,,,,,,
2992584,1501039095126,,,,,,,,,0,2835,310,,,,,,,,,,,,,,,
2992594,1501039095136,,,,,,,,,0,2895,310,,,,,,,,,,,,,,,
2992604,1501039095146,3.16,,0.1,0.04,1.25,-3,-1,6,0,2940,310,,,,,,,,,,,,,,,
2992614,1501039095156,,,,,,,,,0,2880,300,,,,,,,,,,,,,,,
2992624,1501039095166,,,,,,,,,0,2820,300,,,,,,,,,,,,,,,
2992634,1501039095176,,,,,,,,,0,2790,300,,,,,,,,,,,,,,,
2992644,1501039095186,3.19,,0.18,-0.03,1.21,-2,-4,7,0,2955,300,36.113663,-115.145859,19.0,6.391,2039.8,9,3,2.0,0,0.0,-1,0.0,0.0,0.0,0
2992654,1501039095198,,,,,,,,,0,2910,300,,,,,,,,,,,,,,,
2992664,1501039095208,,,,,,,,,0,2850,300,,,,,,,,,,,,,,,
2992674,1501039095218,,,,,,,,,0,2775,310,,,,,,,,,,,,,,,
2992684,1501039095228,3.17,,0.27,-0.06,1.12,-3,-5,9,0,2955,310,,,,,,,,,,,,,,,
2992694,1501039095238,,,,,,,,,0,2925,310,,,,,,,,,,,,,,,
2992704,1501039095248,,,,,,,,,0,2865,310,,,,,,,,,,,,,,,
2992714,1501039095258,,,,,,,,,0,2790,310,,,,,,,,,,,,,,,
2992724,1501039095268,3.18,,0.32,-0.12,0.96,-4,-8,11,0,2940,310,,,,,,,,,,,,,,,
2992734,1501039095278,,,,,,,,,0,2925,310,,,,,,,,,,,,,,,
2992744,1501039095288,,,,,,,,,0,2865,310,36.113663,-115.145866,18.99,6.391,2039.8,9,3,2.0,0,0.0,-1,0.0,0.0,0.0,0
2992754,1501039095298,,,,,,,,,0,2805,310,,,,,,,,,,,,,,,
2992764,1501039095308,3.09,,0.32,-0.16,0.66,-4,-8,10,0,2985,310,,,,,,,,,,,,,,,
2992774,1501039095318,,,,,,,,,0,2940,310,,,,,,,,,,,,,,,
2992784,1501039095328,,,,,,,,,0,2925,310,,,,,,,,,,,,,,,
2992794,1501039095338,,,,,,,,,0,2865,310,,,,,,,,,,,,,,,
2992804,1501039095348,3.22,,0.29,-0.12,0.56,-4,-7,8,0,2940,310,,,,,,,,,,,,,,,
2992814,1501039095358,,,,,,,,,0,2925,310,,,,,,,,,,,,,,,
2992824,1501039095368,,,,,,,,,0,2910,310,,,,,,,,,,,,,,,
2992834,1501039095378,,,,,,,,,0,2850,310,,,,,,,,,,,,,,,
2992844,1501039095388,3.22,,0.25,-0.07,0.34,-3,-3,6,0,2925,310,36.113659,-115.145882,19.61,6.392,2039.9,9,3,2.0,0,0.0,-1,0.0,0.0,0.0,0
2992854,1501039095398,,,,,,,,,0,2955,310,,,,,,,,,,,,,,,
2992864,1501039095408,,,,,,,,,0,2910,310,,,,,,,,,,,,,,,
2992874,1501039095418,,,,,,,,,0,2865,310,,,,,,,,,,,,,,,
2992884,1501039095428,3.22,,0.25,0.03,0.16,-2,-3,4,0,2925,310,,,,,,,,,,,,,,,
2992894,1501039095438,,,,,,,,,0,2955,310,,,,,,,,,,,,,,,
2992904,1501039095448,,,,,,,,,0,2925,310,,,,,,,,,,,,,,,
2992914,1501039095458,,,,,,,,,0,2865,310,,,,,,,,,,,,,,,
2992924,1501039095468,3.17,,0.12,0.15,0.22,-1,-2,7,0,2955,310,,,,,,,,,,,,,,,
2992934,1501039095478,,,,,,,,,0,2970,310,,,,,,,,,,,,,,,
2992944,1501039095488,,,,,,,,,0,2925,310,36.113659,-115.145882,19.57,6.392,2040.1,9,3,2.0,0,0.0,-1,0.0,0.0,0.0,0
2992954,1501039095498,,,,,,,,,0,2895,310,,,,,,,,,,,,,,,
2992964,1501039095508,3.23,,0.03,0.25,0.3,1,-3,4,0,2820,320,,,,,,,,,,,,,,,
2992974,1501039095518,,,,,,,,,0,3000,320,,,,,,,,,,,,,,,
2992984,1501039095528,,,,,,,,,0,2970,320,,,,,,,,,,,,,,,
2992994,1501039095538,,,,,,,,,0,2910,320,,,,,,,,,,,,,,,
2993004,1501039095548,3.25,,0.02,0.28,0.56,3,-2,-3,0,2850,320,,,,,,,,,,,,,,,
2993014,1501039095558,,,,,,,,,0,2985,320,,,,,,,,,,,,,,,
2993024,1501039095568,,,,,,,,,0,2955,310,,,,,,,,,,,,,,,
2993034,1501039095578,,,,,,,,,0,2910,310,,,,,,,,,,,,,,,
2993044,1501039095588,3.22,4.49,0.04,0.23,0.75,6,-2,-7,0,2835,310,36.113659,-115.145897,19.8,6.393,2040.3,9,3,2.0,0,0.0,-1,0.0,0.0,0.0,0
2993054,1501039095598,,,,,,,,,0,2985,320,,,,,,,,,,,,,,,
2993064,1501039095608,,,,,,,,,0,2955,320,,,,,,,,,,,,,,,
2993074,1501039095618,,,,,,,,,0,2910,320,,,,,,,,,,,,,,,
2993084,1501039095628,3.28,,-0.04,0.23,0.99,6,-3,-15,0,2835,320,,,,,,,,,,,,,,,
2993094,1501039095638,,,,,,,,,0,2985,320,,,,,,,,,,,,,,,
2993104,1501039095648,,,,,,,,,0,2970,320,,,,,,,,,,,,,,,
2993114,1501039095658,,,,,,,,,0,2910,320,,,,,,,,,,,,,,,
2993124,1501039095668,3.25,,-0.11,0.17,1.08,6,-2,-17,0,2850,320,,,,,,,,,,,,,,,
2993134,1501039095678,,,,,,,,,0,3000,320,,,,,,,,,,,,,,,
2993144,1501039095688,,,,,,,,,0,2970,330,36.113659,-115.145912,20.24,6.393,2040.4,9,3,2.0,0,0.0,-1,0.0,0.0,0.0,0
2993154,1501039095697,,,,,,,,,0,2940,330,,,,,,,,,,,,,,,
2993164,1501039095707,3.22,,-0.08,0.11,1.21,3,-2,-17,0,2865,330,,,,,,,,,,,,,,,
2993174,1501039095717,,,,,,,,,0,3015,320,,,,,,,,,,,,,,,
2993184,1501039095727,,,,,,,,,0,3000,320,,,,,,,,,,,,,,,
2993194,1501039095737,,,,,,,,,0,2910,320,,,,,,,,,,,,,,,
2993204,1501039095747,3.2,,-0.05,0.08,1.36,-2,2,-11,0,2850,320,,,,,,,,,,,,,,,
2993214,1501039095757,,,,,,,,,0,3000,320,,,,,,,,,,,,,,,
2993224,1501039095767,,,,,,,,,0,2985,320,,,,,,,,,,,,,,,
2993234,1501039095777,,,,,,,,,0,2940,330,,,,,,,,,,,,,,,
2993244,1501039095787,3.18,,-0.05,0.01,1.48,-5,4,1,0,2895,330,36.113659,-115.14592,20.34,6.394,2040.5,9,3,2.0,0,0.0,-1,0.0,0.0,0.0,0
2993254,1501039095797,,,,,,,,,0,2985,330,,,,,,,,,,,,,,,
2993264,1501039095807,,,,,,,,,0,3000,330,,,,,,,,,,,,,,,
2993274,1501039095817,,,,,,,,,0,2985,330,,,,,,,,,,,,,,,
2993284,1501039095827,3.23,,-0.03,0.01,1.56,-7,4,8,0,2910,330,,,,,,,,,,,,,,,
2993294,1501039095837,,,,,,,,,0,3000,330,,,,,,,,,,,,,,,
2993304,1501039095847,,,,,,,,,0,3030,330,,,,,,,,,,,,,,,
2993314,1501039095857,,,,,,,,,0,2985,330,,,,,,,,,,,,,,,
2993324,1501039095867,3.16,,-0.04,0.03,1.65,-9,5,16,0,2910,330,,,,,,,,,,,,,,,
2993334,1501039095877,,,,,,,,,0,3015,330,,,,,,,,,,,,,,,
2993344,1501039095887,,,,,,,,,0,3015,330,36.113659,-115.145935,20.64,6.394,2040.8,9,3,2.0,0,0.0,-1,0.0,0.0,0.0,0
2993354,1501039095897,,,,,,,,,0,2985,330,,,,,,,,,,,,,,,
2993364,1501039095907,3.2,,0.04,-0.04,1.64,-8,3,19,0,2925,330,,,,,,,,,,,,,,,
2993374,1501039095917,,,,,,,,,0,3000,330,,,,,,,,,,,,,,,
2993384,1501039095927,,,,,,,,,0,3015,330,,,,,,,,,,,,,,,
2993394,1501039095937,,,,,,,,,0,2985,330,,,,,,,,,,,,,,,
2993404,1501039095947,3.18,,0.07,-0.06,1.61,-8,1,22,0,2895,330,,,,,,,,,,,,,,,
2993414,1501039095957,,,,,,,,,0,3000,330,,,,,,,,,,,,,,,
2993424,1501039095967,,,,,,,,,0,3000,330,,,,,,,,,,,,,,,
2993434,1501039095977,,,,,,,,,0,2970,330,,,,,,,,,,,,,,,
2993444,1501039095987,3.18,,0.11,-0.14,1.55,-6,-1,22,0,2910,340,36.113659,-115.145935,20.84,6.395,2041.0,9,3,2.0,0,0.0,-1,0.0,0.0,0.0,0
2993454,1501039095997,,,,,,,,,0,3000,340,,,,,,,,,,,,,,,
2993464,1501039095999,,,,,,,,,0,2985,340,,,,,,,,,,,,,,,
2993474,1501039096009,,,,,,,,,0,3000,330,,,,,,,,,,,,,,,
2993484,1501039096019,3.15,,0.19,-0.15,1.45,-5,-4,23,0,2895,330,,,,,,,,,,,,,,,
2993494,1501039096029,,,,,,,,,0,3030,330,,,,,,,,,,,,,,,
2993504,1501039096039,,,,,,,,,0,3030,340,,,,,,,,,,,,,,,
2993514,1501039096049,,,,,,,,,0,2985,340,,,,,,,,,,,,,,,
2993524,1501039096059,3.12,,0.27,-0.23,1.35,-4,-7,21,0,2925,340,,,,,,,,,,,,,,,
2993534,1501039096069,,,,,,,,,0,3000,330,,,,,,,,,,,,,,,
2993544,1501039096079,,,,,,,,,0,3000,330,36.113659,-115.14595,21.06,6.396,2041.0,9,3,1.9,0,0.0,-1,0.0,0.0,0.0,0
2993554,1501039096095,,,,,,,,,0,3000,330,,,,,,,,,,,,,,,
2993564,1501039096105,3.15,,0.37,-0.22,1.34,-2,-10,20,0,2910,340,,,,,,,,,,,,,,,
2993574,1501039096115,,,,,,,,,0,3030,340,,,,,,,,,,,,,,,
2993584,1501039096125,,,,,,,,,0,3015,340,,,,,,,,,,,,,,,
2993594,1501039096135,,,,,,,,,0,2970,340,,,,,,,,,,,,,,,
2993604,1501039096145,3.13,,0.42,-0.25,1.38,-2,-12,20,0,2925,340,,,,,,,,,,,,,,,
2993614,1501039096155,,,,,,,,,0,3030,340,,,,,,,,,,,,,,,
2993624,1501039096165,,,,,,,,,0,3000,340,,,,,,,,,,,,,,,
2993634,1501039096175,,,,,,,,,0,3015,340,,,,,,,,,,,,,,,
2993644,1501039096185,3.08,,0.49,-0.28,1.29,-1,-12,16,0,2910,340,36.113655,-115.145958,21.41,6.396,2041.1,9,3,1.9,0,0.0,-1,0.0,0.0,0.0,0
2993654,1501039096197,,,,,,,,,0,3000,340,,,,,,,,,,,,,,,
2993664,1501039096207,,,,,,,,,0,3015,340,,,,,,,,,,,,,,,
2993674,1501039096217,,,,,,,,,0,2985,350,,,,,,,,,,,,,,,
2993684,1501039096227,3.12,,0.43,-0.17,1.14,0,-8,13,0,2895,350,,,,,,,,,,,,,,,
2993694,1501039096237,,,,,,,,,0,3000,350,,,,,,,,,,,,,,,
2993704,1501039096247,,,,,,,,,0,2970,330,,,,,,,,,,,,,,,
2993714,1501039096257,,,,,,,,,0,2970,330,,,,,,,,,,,,,,,
2993724,1501039096267,3.18,,0.4,-0.21,1.12,4,-6,12,0,2865,330,,,,,,,,,,,,,,,
2993734,1501039096277,,,,,,,,,0,2955,330,,,,,,,,,,,,,,,
2993744,1501039096287,,,,,,,,,0,2940,330,36.113655,-115.145973,21.54,6.397,2041.1,9,3,1.9,0,0.0,-1,0.0,0.0,0.0,0
2993754,1501039096297,,,,,,,,,0,2910,330,,,,,,,,,,,,,,,
2993764,1501039096307,3.1,,0.39,-0.24,1.15,4,-4,11,0,2850,330,,,,,,,,,,,,,,,
2993774,1501039096317,,,,,,,,,0,2820,330,,,,,,,,,,,,,,,
2993784,1501039096327,,,,,,,,,0,2775,330,,,,,,,,,,,,,,,
2993794,1501039096337,,,,,,,,,0,2730,330,,,,,,,,,,,,,,,
2993804,1501039096347,3.2,,0.27,-0.16,1.13,4,2,13,0,2700,310,,,,,,,,,,,,,,,
2993814,1501039096357,,,,,,,,,0,2670,310,,,,,,,,,,,,,,,
2993824,1501039096367,,,,,,,,,0,2655,310,,,,,,,,,,,,,,,
2993834,1501039096377,,,,,,,,,0,2640,310,,,,,,,,,,,,,,,
2993844,1501039096387,3.18,,0.15,-0.18,1.15,4,6,11,0,2580,310,36.113655,-115.145988,21.78,6.397,2041.2,9,3,1.9,0,0.0,-1,0.0,0.0,0.0,0
2993854,1501039096397,,,,,,,,,0,2565,310,,,,,,,,,,,,,,,
2993864,1501039096407,,,,,,,,,0,2550,300,,,,,,,,,,,,,,,
2993874,1501039096417,,,,,,,,,0,2505,300,,,,,,,,,,,,,,,
2993884,1501039096427,3.25,,-0.03,-0.15,1.28,4,14,9,0,2490,300,,,,,,,,,,,,,,,
2993894,1501039096437,,,,,,,,,0,2460,290,,,,,,,,,,,,,,,
2993904,1501039096447,,,,,,,,,0,2445,290,,,,,,,,,,,,,,,
2993914,1501039096457,,,,,,,,,0,2430,290,,,,,,,,,,,,,,,
2993924,1501039096467,3.17,,-0.15,-0.13,1.31,4,20,11,0,2430,290,,,,,,,,,,,,,,,
2993934,1501039096477,,,,,,,,,0,2400,280,,,,,,,,,,,,,,,
2993944,1501039096487,,,,,,,,,0,2385,280,36.113655,-115.145996,21.72,6.398,2041.3,9,3,1.9,0,0.0,-1,0.0,0.0,0.0,0
2993954,1501039096491,,,,,,,,,0,2355,280,,,,,,,,,,,,,,,
2993964,1501039096501,3.22,,-0.24,-0.12,1.24,1,14,9,0,2355,280,,,,,,,,,,,,,,,
2993974,1501039096511,,,,,,,,,0,2355,270,,,,,,,,,,,,,,,
2993984,1501039096521,,,,,,,,,0,2325,270,,,,,,,,,,,,,,,
2993994,1501039096531,,,,,,,,,0,2280,270,,,,,,,,,,,,,,,
2994004,1501039096541,3.27,,-0.41,-0.14,1.29,1,14,12,0,2280,270,,,,,,,,,,,,,,,
2994014,1501039096551,,,,,,,,,0,2250,270,,,,,,,,,,,,,,,
2994024,1501039096561,,,,,,,,,0,2250,270,,,,,,,,,,,,,,,
2994034,1501039096571,,,,,,,,,0,2220,270,,,,,,,,,,,,,,,
2994044,1501039096581,3.31,4.52,-0.42,-0.17,1.17,3,9,10,0,2220,260,36.113655,-115.145996,21.27,6.399,2041.4,9,3,1.9,0,0.0,-1,0.0,0.0,0.0,0
2994054,1501039096597,,,,,,,,,0,2190,260,,,,,,,,,,,,,,,
2994064,1501039096607,,,,,,,,,0,2175,260,,,,,,,,,,,,,,,
2994074,1501039096617,,,,,,,,,0,2160,260,,,,,,,,,,,,,,,
2994084,1501039096627,3.28,,-0.49,-0.08,1.12,3,11,10,0,2160,250,,,,,,,,,,,,,,,
2994094,1501039096637,,,,,,,,,0,2115,250,,,,,,,,,,,,,,,
2994104,1501039096647,,,,,,,,,0,2130,250,,,,,,,,,,,,,,,
2994114,1501039096657,,,,,,,,,0,2085,250,,,,,,,,,,,,,,,
2994124,1501039096667,3.27,,-0.47,-0.11,0.96,3,8,10,0,2070,240,,,,,,,,,,,,,,,
2994134,1501039096677,,,,,,,,,0,2085,240,,,,,,,,,,,,,,,
2994144,1501039096687,,,,,,,,,0,2055,240,36.113655,-115.146011,20.11,6.399,2041.6,9,3,1.9,0,0.0,-1,0.0,0.0,0.0,0
2994154,1501039096696,,,,,,,,,0,2040,240,,,,,,,,,,,,,,,
2994164,1501039096706,3.28,,-0.51,-0.02,0.96,2,5,10,0,2025,230,,,,,,,,,,,,,,,
2994174,1501039096716,,,,,,,,,0,2010,230,,,,,,,,,,,,,,,
2994184,1501039096726,,,,,,,,,0,1995,230,,,,,,,,,,,,,,,
2994194,1501039096736,,,,,,,,,0,1995,230,,,,,,,,,,,,,,,
2994204,1501039096746,3.21,,-0.56,0.02,0.98,2,3,8,0,1980,230,,,,,,,,,,,,,,,
2994214,1501039096756,,,,,,,,,0,1950,230,,,,,,,,,,,,,,,
2994224,1501039096766,,,,,,,,,0,1935,230,,,,,,,,,,,,,,,
2994234,1501039096776,,,,,,,,,0,1935,230,,,,,,,,,,,,,,,
2994244,1501039096786,3.19,,-0.58,0.01,0.92,2,1,8,0,1905,230,36.113651,-115.146027,18.98,6.4,2041.6,9,3,1.9,0,0.0,-1,0.0,0.0,0.0,0
2994254,1501039096796,,,,,,,,,0,1920,220,,,,,,,,,,,,,,,
2994264,1501039096806,,,,,,,,,0,1905,220,,,,,,,,,,,,,,,
2994274,1501039096816,,,,,,,,,0,1890,220,,,,,,,,,,,,,,,
2994284,1501039096826,3.21,,-0.56,-0.0,0.92,3,-1,7,0,1860,220,,,,,,,,,,,,,,,
2994294,1501039096836,,,,,,,,,0,1845,210,,,,,,,,,,,,,,,
2994304,1501039096846,,,,,,,,,0,1830,210,,,,,,,,,,,,,,,
2994314,1501039096856,,,,,,,,,0,1830,210,,,,,,,,,,,,,,,
2994324,1501039096866,3.2,,-0.55,-0.11,0.96,3,-3,7,0,1815,210,,,,,,,,,,,,,,,
2994334,1501039096876,,,,,,,,,0,1800,210,,,,,,,,,,,,,,,
2994344,1501039096886,,,,,,,,,0,1785,210,36.113651,-115.146027,17.56,6.4,2041.5,9,3,1.9,0,0.0,-1,0.0,0.0,0.0,0
2994354,1501039096896,,,,,,,,,0,1770,210,,,,,,,,,,,,,,,
2994364,1501039096906,3.25,,-0.59,-0.06,0.96,3,-5,5,0,1740,210,,,,,,,,,,,,,,,
2994374,1501039096916,,,,,,,,,0,1740,210,,,,,,,,,,,,,,,
2994384,1501039096926,,,,,,,,,0,1725,210,,,,,,,,,,,,,,,
2994394,1501039096936,,,,,,,,,0,1710,190,,,,,,,,,,,,,,,
2994404,1501039096946,3.25,,-0.63,0.01,1.04,2,-3,4,0,1695,190,,,,,,,,,,,,,,,
2994414,1501039096956,,,,,,,,,0,1680,190,,,,,,,,,,,,,,,
2994424,1501039096966,,,,,,,,,0,1665,190,,,,,,,,,,,,,,,
2994434,1501039096976,,,,,,,,,0,1635,190,,,,,,,,,,,,,,,
2994444,1501039096986,3.24,,-0.65,-0.09,1.11,2,-5,5,0,1635,180,36.113651,-115.146034,16.19,6.401,2041.6,9,3,1.9,0,0.0,-1,0.0,0.0,0.0,0
2994454,1501039096996,,,,,,,,,0,1620,180,,,,,,,,,,,,,,,
2994464,1501039097000,,,,,,,,,0,1620,180,,,,,,,,,,,,,,,
2994474,1501039097010,,,,,,,,,0,1635,180,,,,,,,,,,,,,,,
2994484,1501039097020,3.26,,-0.63,-0.03,1.14,1,-5,6,0,1620,180,,,,,,,,,,,,,,,
2994494,1501039097030,,,,,,,,,0,1575,180,,,,,,,,,,,,,,,
2994504,1501039097040,,,,,,,,,0,1545,180,,,,,,,,,,,,,,,
2994514,1501039097050,,,,,,,,,0,1530,180,,,,,,,,,,,,,,,
2994524,1501039097060,3.21,,-0.62,-0.08,1.12,1,-8,5,0,1530,180,,,,,,,,,,,,,,,
2994534,1501039097070,,,,,,,,,0,1530,180,,,,,,,,,,,,,,,
2994544,1501039097080,,,,,,,,,0,1530,180,36.113651,-115.14605,14.73,6.401,2041.6,9,3,1.9,0,0.0,-1,0.0,0.0,0.0,0
2994554,1501039097096,,,,,,,,,0,1515,180,,,,,,,,,,,,,,,
2994564,1501039097106,3.22,,-0.64,-0.12,1.08,1,-8,4,0,1485,170,,,,,,,,,,,,,,,
2994574,1501039097116,,,,,,,,,0,1470,170,,,,,,,,,,,,,,,
2994584,1501039097126,,,,,,,,,0,1455,170,,,,,,,,,,,,,,,
2994594,1501039097136,,,,,,,,,0,1440,170,,,,,,,,,,,,,,,
2994604,1501039097146,3.25,,-0.66,-0.03,1.06,1,-5,4,0,1440,170,,,,,,,,,,,,,,,
2994614,1501039097156,,,,,,,,,0,1425,170,,,,,,,,,,,,,,,
2994624,1501039097166,,,,,,,,,0,1455,160,,,,,,,,,,,,,,,
2994634,1501039097176,,,,,,,,,0,1470,160,,,,,,,,,,,,,,,
2994644,1501039097186,3.26,,-0.62,0.03,1.05,1,-3,5,0,1455,160,36.113651,-115.14605,13.32,6.401,2041.6,9,3,1.9,0,0.0,-1,0.0,0.0,0.0,0
2994654,1501039097196,,,,,,,,,0,1425,160,,,,,,,,,,,,,,,
2994664,1501039097206,,,,,,,,,0,1395,160,,,,,,,,,,,,,,,
2994674,1501039097216,,,,,,,,,0,1380,160,,,,,,,,,,,,,,,
2994684,1501039097226,3.25,,-0.62,0.07,1.03,1,-3,5,0,1365,150,,,,,,,,,,,,,,,
2994694,1501039097236,,,,,,,,,0,1350,150,,,,,,,,,,,,,,,
2994704,1501039097246,,,,,,,,,0,1395,150,,,,,,,,,,,,,,,
2994714,1501039097256,,,,,,,,,0,1425,150,,,,,,,,,,,,,,,
2994724,1501039097266,3.26,,-0.59,0.11,1.05,-0,1,6,0,1395,150,,,,,,,,,,,,,,,
2994734,1501039097276,,,,,,,,,0,1365,150,,,,,,,,,,,,,,,
2994744,1501039097286,,,,,,,,,0,1350,150,36.113651,-115.146065,11.81,6.402,2041.6,9,3,1.9,0,0.0,-1,0.0,0.0,0.0,0
2994754,1501039097298,,,,,,,,,0,1350,150,,,,,,,,,,,,,,,
2994764,1501039097308,3.24,,-0.58,0.15,1.03,-0,2,5,0,1320,130,,,,,,,,,,,,,,,
2994774,1501039097318,,,,,,,,,0,1305,130,,,,,,,,,,,,,,,
2994784,1501039097328,,,,,,,,,0,1275,130,,,,,,,,,,,,,,,
2994794,1501039097338,,,,,,,,,0,1350,130,,,,,,,,,,,,,,,
2994804,1501039097348,3.23,,-0.57,0.09,1.0,-0,-1,4,0,1380,130,,,,,,,,,,,,,,,
2994814,1501039097358,,,,,,,,,0,1350,130,,,,,,,,,,,,,,,
2994824,1501039097368,,,,,,,,,0,1335,130,,,,,,,,,,,,,,,
2994834,1501039097378,,,,,,,,,0,1305,130,,,,,,,,,,,,,,,
2994844,1501039097388,3.24,,-0.56,0.05,0.97,0,-4,3,0,1305,120,36.113651,-115.146065,10.75,6.402,2041.6,9,3,1.9,0,0.0,-1,0.0,0.0,0.0,0
2994854,1501039097396,,,,,,,,,0,1290,120,,,,,,,,,,,,,,,
2994864,1501039097406,,,,,,,,,0,1260,120,,,,,,,,,,,,,,,
2994874,1501039097416,,,,,,,,,0,1230,120,,,,,,,,,,,,,,,
2994884,1501039097426,3.24,,-0.57,0.06,0.98,-0,-2,4,0,1335,120,,,,,,,,,,,,,,,
2994894,1501039097436,,,,,,,,,0,1380,120,,,,,,,,,,,,,,,
2994904,1501039097446,,,,,,,,,0,1350,120,,,,,,,,,,,,,,,
2994914,1501039097456,,,,,,,,,0,1320,120,,,,,,,,,,,,,,,
2994924,1501039097466,3.22,,-0.53,0.02,1.03,-0,-2,4,0,1320,120,,,,,,,,,,,,,,,
2994934,1501039097476,,,,,,,,,0,1290,120,,,,,,,,,,,,,,,
2994944,1501039097486,,,,,,,,,0,1260,120,36.113651,-115.146065,9.75,6.402,2041.4,9,3,1.9,0,0.0,-1,0.0,0.0,0.0,0
2994954,1501039097496,,,,,,,,,0,1245,120,,,,,,,,,,,,,,,
2994964,1501039097506,3.2,,-0.5,0.0,1.01,0,-6,3,0,1185,120,,,,,,,,,,,,,,,
2994974,1501039097516,,,,,,,,,0,1320,120,,,,,,,,,,,,,,,
2994984,1501039097526,,,,,,,,,0,1380,120,,,,,,,,,,,,,,,
2994994,1501039097536,,,,,,,,,0,1380,120,,,,,,,,,,,,,,,
2995004,1501039097546,3.19,,-0.5,0.04,0.96,0,-7,3,0,1365,120,,,,,,,,,,,,,,,
2995014,1501039097556,,,,,,,,,0,1335,120,,,,,,,,,,,,,,,
2995024,1501039097566,,,,,,,,,0,1305,990,,,,,,,,,,,,,,,
2995034,1501039097576,,,,,,,,,0,1290,990,,,,,,,,,,,,,,,
2995044,1501039097586,3.21,4.45,-0.5,0.01,0.91,1,-6,3,0,1260,990,36.113651,-115.146072,8.7,6.403,2041.4,9,3,1.9,0,0.0,-1,0.0,0.0,0.0,0
2995054,1501039097596,,,,,,,,,0,1170,990,,,,,,,,,,,,,,,
2995064,1501039097606,,,,,,,,,0,1380,990,,,,,,,,,,,,,,,
2995074,1501039097616,,,,,,,,,0,1485,990,,,,,,,,,,,,,,,
2995084,1501039097626,3.18,,-0.5,-0.02,0.9,1,-6,5,0,1455,990,,,,,,,,,,,,,,,
2995094,1501039097636,,,,,,,,,0,1455,990,,,,,,,,,,,,,,,
2995104,1501039097646,,,,,,,,,0,1425,990,,,,,,,,,,,,,,,
2995114,1501039097656,,,,,,,,,0,1395,990,,,,,,,,,,,,,,,
2995124,1501039097666,3.23,,-0.47,-0.05,0.92,1,-5,5,0,1365,520,,,,,,,,,,,,,,,
2995134,1501039097676,,,,,,,,,0,1320,520,,,,,,,,,,,,,,,
2995144,1501039097686,,,,,,,,,0,1215,520,36.113651,-115.146072,7.94,6.403,2041.5,9,3,1.9,0,0.0,-1,0.0,0.0,0.0,0
2995154,1501039097697,,,,,,,,,0,1425,520,,,,,,,,,,,,,,,
2995164,1501039097707,3.25,,-0.42,-0.02,0.91,0,-9,5,0,1530,520,,,,,,,,,,,,,,,
2995174,1501039097717,,,,,,,,,0,1500,520,,,,,,,,,,,,,,,
2995184,1501039097727,,,,,,,,,0,1455,520,,,,,,,,,,,,,,,
2995194,1501039097737,,,,,,,,,0,1410,520,,,,,,,,,,,,,,,
2995204,1501039097747,3.25,,-0.4,-0.01,0.86,0,-8,5,0,1365,520,,,,,,,,,,,,,,,
2995214,1501039097757,,,,,,,,,0,1320,520,,,,,,,,,,,,,,,
2995224,1501039097767,,,,,,,,,0,1320,520,,,,,,,,,,,,,,,
2995234,1501039097777,,,,,,,,,0,1215,520,,,,,,,,,,,,,,,
2995244,1501039097787,3.22,,-0.43,-0.01,0.98,0,-7,3,0,1425,300,36.113651,-115.146072,7.16,6.403,2041.6,9,3,1.9,0,0.0,-1,0.0,0.0,0.0,0
2995254,1501039097797,,,,,,,,,0,1530,300,,,,,,,,,,,,,,,
2995264,1501039097807,,,,,,,,,0,1500,300,,,,,,,,,,,,,,,
2995274,1501039097817,,,,,,,,,0,1455,300,,,,,,,,,,,,,,,
2995284,1501039097827,3.26,,-0.38,0.01,0.99,-0,-7,3,0,1410,300,,,,,,,,,,,,,,,
2995294,1501039097837,,,,,,,,,0,1380,300,,,,,,,,,,,,,,,
2995304,1501039097847,,,,,,,,,0,1335,300,,,,,,,,,,,,,,,
2995314,1501039097857,,,,,,,,,0,1230,300,,,,,,,,,,,,,,,
2995324,1501039097867,3.25,,-0.36,-0.02,0.97,-1,-7,6,0,1425,300,,,,,,,,,,,,,,,
2995334,1501039097877,,,,,,,,,0,1530,300,,,,,,,,,,,,,,,
2995344,1501039097887,,,,,,,,,0,1500,300,36.113651,-115.146072,6.45,6.403,2041.8,9,3,1.9,0,0.0,-1,0.0,0.0,0.0,0
2995354,1501039097895,,,,,,,,,0,1470,300,,,,,,,,,,,,,,,
2995364,1501039097905,3.2,,-0.3,-0.04,1.03,-0,-7,5,0,1425,300,,,,,,,,,,,,,,,
2995374,1501039097915,,,,,,,,,0,1380,300,,,,,,,,,,,,,,,
2995384,1501039097925,,,,,,,,,0,1380,190,,,,,,,,,,,,,,,
2995394,1501039097935,,,,,,,,,0,1335,190,,,,,,,,,,,,,,,
2995404,1501039097945,3.25,,-0.3,-0.02,1.02,-0,-10,4,0,1230,190,,,,,,,,,,,,,,,
2995414,1501039097955,,,,,,,,,0,1425,190,,,,,,,,,,,,,,,
2995424,1501039097965,,,,,,,,,0,1530,190,,,,,,,,,,,,,,,
2995434,1501039097975,,,,,,,,,0,1500,190,,,,,,,,,,,,,,,
2995444,1501039097985,3.23,,-0.27,-0.01,0.98,0,-11,3,0,1455,190,36.113647,-115.146088,5.52,6.403,2041.7,9,3,1.9,0,0.0,-1,0.0,0.0,0.0,0
2995454,1501039097995,,,,,,,,,0,1410,190,,,,,,,,,,,,,,,
2995464,1501039097997,,,,,,,,,0,1380,190,,,,,,,,,,,,,,,
2995474,1501039098007,,,,,,,,,0,1320,190,,,,,,,,,,,,,,,
2995484,1501039098017,3.21,,-0.28,-0.01,0.95,0,-11,2,0,1230,190,,,,,,,,,,,,,,,
2995494,1501039098027,,,,,,,,,0,1410,190,,,,,,,,,,,,,,,
2995504,1501039098037,,,,,,,,,0,1530,10000000,,,,,,,,,,,,,,,
2995514,1501039098047,,,,,,,,,0,1500,0,,,,,,,,,,,,,,,
2995524,1501039098057,3.17,,-0.25,0.03,0.96,-1,-9,4,0,1455,0,,,,,,,,,,,,,,,
2995534,1501039098067,,,,,,,,,0,1425,0,,,,,,,,,,,,,,,
2995544,1501039098077,,,,,,,,,0,1380,140,36.113647,-115.146088,4.64,6.404,2041.6,9,3,1.9,0,0.0,-1,0.0,0.0,0.0,0
2995554,1501039098095,,,,,,,,,0,1380,140,,,,,,,,,,,,,,,
2995564,1501039098105,3.23,,-0.24,0.02,1.0,-0,-8,4,0,1335,140,,,,,,,,,,,,,,,
2995574,1501039098115,,,,,,,,,0,1230,140,,,,,,,,,,,,,,,
2995584,1501039098125,,,,,,,,,0,1410,140,,,,,,,,,,,,,,,
2995594,1501039098135,,,,,,,,,0,1515,140,,,,,,,,,,,,,,,
2995604,1501039098145,3.23,,-0.19,-0.01,1.08,-0,-7,3,0,1485,140,,,,,,,,,,,,,,,
2995614,1501039098155,,,,,,,,,0,1455,140,,,,,,,,,,,,,,,
2995624,1501039098165,,,,,,,,,0,1410,140,,,,,,,,,,,,,,,
2995634,1501039098175,,,,,,,,,0,1365,140,,,,,,,,,,,,,,,
2995644,1501039098185,3.23,,-0.17,0.01,1.1,-1,-7,4,0,1335,140,36.113647,-115.146088,4.33,6.404,2041.3,9,3,1.9,0,0.0,-1,0.0,0.0,0.0,0
2995654,1501039098197,,,,,,,,,0,1215,140,,,,,,,,,,,,,,,
2995664,1501039098207,,,,,,,,,0,1395,140,,,,,,,,,,,,,,,
2995674,1501039098217,,,,,,,,,0,1515,10000000,,,,,,,,,,,,,,,
2995684,1501039098227,3.19,,-0.15,-0.02,1.08,-1,-6,5,0,1485,0,,,,,,,,,,,,,,,
2995694,1501039098237,,,,,,,,,0,1440,0,,,,,,,,,,,,,,,
2995704,1501039098247,,,,,,,,,0,1395,0,,,,,,,,,,,,,,,
2995714,1501039098257,,,,,,,,,0,1395,2000,,,,,,,,,,,,,,,
2995724,1501039098267,3.23,,-0.12,-0.02,1.09,-0,-5,5,0,1350,2000,,,,,,,,,,,,,,,
2995734,1501039098277,,,,,,,,,0,1305,2000,,,,,,,,,,,,,,,
2995744,1501039098287,,,,,,,,,0,1185,2000,36.113647,-115.146088,4.0,6.404,2041.3,9,3,1.9,0,0.0,-1,0.0,0.0,0.0,0
2995754,1501039098297,,,,,,,,,0,1380,2000,,,,,,,,,,,,,,,
2995764,1501039098307,3.24,,-0.13,-0.01,1.03,-0,-7,3,0,1485,2000,,,,,,,,,,,,,,,
2995774,1501039098317,,,,,,,,,0,1455,2000,,,,,,,,,,,,,,,
2995784,1501039098327,,,,,,,,,0,1425,2000,,,,,,,,,,,,,,,
2995794,1501039098337,,,,,,,,,0,1380,2000,,,,,,,,,,,,,,,
2995804,1501039098347,3.23,,-0.13,-0.02,0.98,-0,-8,4,0,1335,2000,,,,,,,,,,,,,,,
2995814,1501039098357,,,,,,,,,0,1335,2000,,,,,,,,,,,,,,,
2995824,1501039098367,,,,,,,,,0,1290,2000,,,,,,,,,,,,,,,
2995834,1501039098377,,,,,,,,,0,1170,2000,,,,,,,,,,,,,,,
2995844,1501039098387,3.21,,-0.13,-0.03,1.11,-0,-6,5,0,1365,0,36.113647,-115.146088,3.61,6.404,2041.3,9,3,2.0,0,0.0,-1,0.0,0.0,0.0,0
2995854,1501039098397,,,,,,,,,0,1470,0,,,,,,,,,,,,,,,
2995864,1501039098407,,,,,,,,,0,1440,0,,,,,,,,,,,,,,,
2995874,1501039098417,,,,,,,,,0,1395,0,,,,,,,,,,,,,,,
2995884,1501039098427,3.17,,-0.11,-0.01,1.12,-0,-5,4,0,1350,0,,,,,,,,,,,,,,,
2995894,1501039098437,,,,,,,,,0,1320,0,,,,,,,,,,,,,,,
2995904,1501039098447,,,,,,,,,0,1275,0,,,,,,,,,,,,,,,
2995914,1501039098457,,,,,,,,,0,1275,0,,,,,,,,,,,,,,,
2995924,1501039098467,3.22,,-0.13,0.01,1.06,-0,-5,4,0,1155,280,,,,,,,,,,,,,,,
2995934,1501039098477,,,,,,,,,0,1230,280,,,,,,,,,,,,,,,
2995944,1501039098487,,,,,,,,,0,1305,280,36.113647,-115.146088,3.35,6.404,2041.0,9,3,2.0,0,0.0,-1,0.0,0.0,0.0,0
2995954,1501039098497,,,,,,,,,0,1290,280,,,,,,,,,,,,,,,
2995964,1501039098507,3.17,,-0.18,-0.0,1.03,-0,-4,4,0,1245,280,,,,,,,,,,,,,,,
2995974,1501039098517,,,,,,,,,0,1245,280,,,,,,,,,,,,,,,
2995984,1501039098527,,,,,,,,,0,1215,280,,,,,,,,,,,,,,,
2995994,1501039098537,,,,,,,,,0,1185,280,,,,,,,,,,,,,,,
2996004,1501039098547,3.17,,-0.21,-0.04,1.03,-0,-4,4,0,1155,280,,,,,,,,,,,,,,,
2996014,1501039098557,,,,,,,,,0,1155,10000000,,,,,,,,,,,,,,,
2996024,1501039098567,,,,,,,,,0,1035,0,,,,,,,,,,,,,,,
2996034,1501039098577,,,,,,,,,0,1065,0,,,,,,,,,,,,,,,
2996044,1501039098587,3.22,4.52,-0.22,-0.07,1.04,-0,-4,4,0,1065,0,36.113647,-115.146088,3.03,6.404,2040.8,9,3,2.0,0,0.0,-1,0.0,0.0,0.0,0
2996054,1501039098597,,,,,,,,,0,1065,0,,,,,,,,,,,,,,,
2996064,1501039098607,,,,,,,,,0,1020,0,,,,,,,,,,,,,,,
2996074,1501039098617,,,,,,,,,0,1020,0,,,,,,,,,,,,,,,
2996084,1501039098627,3.2,,-0.3,-0.07,1.04,-1,-3,5,0,990,0,,,,,,,,,,,,,,,
2996094,1501039098637,,,,,,,,,0,975,0,,,,,,,,,,,,,,,
2996104,1501039098647,,,,,,,,,0,975,0,,,,,,,,,,,,,,,
2996114,1501039098657,,,,,,,,,0,960,0,,,,,,,,,,,,,,,
2996124,1501039098667,3.21,,-0.34,-0.06,1.04,-0,-1,4,0,960,0,,,,,,,,,,,,,,,
2996134,1501039098677,,,,,,,,,0,930,0,,,,,,,,,,,,,,,
2996144,1501039098687,,,,,,,,,0,810,0,36.113647,-115.146103,2.83,6.404,2040.6,9,3,2.0,0,0.0,-1,0.0,0.0,0.0,0
2996154,1501039098696,,,,,,,,,0,810,0,,,,,,,,,,,,,,,
2996164,1501039098706,3.2,,-0.4,-0.07,1.02,-0,1,4,0,870,0,,,,,,,,,,,,,,,
2996174,1501039098716,,,,,,,,,0,870,0,,,,,,,,,,,,,,,
2996184,1501039098726,,,,,,,,,0,900,0,,,,,,,,,,,,,,,
2996194,1501039098736,,,,,,,,,0,885,0,,,,,,,,,,,,,,,
2996204,1501039098746,3.21,,-0.42,-0.08,1.03,-1,2,5,0,885,0,,,,,,,,,,,,,,,
2996214,1501039098756,,,,,,,,,0,870,0,,,,,,,,,,,,,,,
2996224,1501039098766,,,,,,,,,0,870,0,,,,,,,,,,,,,,,
2996234,1501039098776,,,,,,,,,0,870,0,,,,,,,,,,,,,,,
2996244,1501039098786,3.16,,-0.38,-0.07,1.03,-1,1,5,0,870,0,36.113647,-115.146103,2.32,6.404,2040.5,9,3,2.0,0,0.0,-1,0.0,0.0,0.0,0
2996254,1501039098798,,,,,,,,,0,870,0,,,,,,,,,,,,,,,
2996264,1501039098808,,,,,,,,,0,855,0,,,,,,,,,,,,,,,
2996274,1501039098818,,,,,,,,,0,855,0,,,,,,,,,,,,,,,
2996284,1501039098828,3.17,,-0.32,-0.05,1.03,-2,-2,5,0,735,0,,,,,,,,,,,,,,,
2996294,1501039098838,,,,,,,,,0,735,0,,,,,,,,,,,,,,,
2996304,1501039098848,,,,,,,,,0,795,0,,,,,,,,,,,,,,,
2996314,1501039098858,,,,,,,,,0,795,0,,,,,,,,,,,,,,,
2996324,1501039098868,3.21,,-0.26,-0.05,1.03,-1,-4,5,0,825,0,,,,,,,,,,,,,,,
2996334,1501039098878,,,,,,,,,0,825,0,,,,,,,,,,,,,,,
2996344,1501039098888,,,,,,,,,0,825,0,36.113647,-115.146103,1.46,6.404,2040.3,9,3,2.0,0,0.0,-1,0.0,0.0,0.0,0
2996354,1501039098898,,,,,,,,,0,825,0,,,,,,,,,,,,,,,
2996364,1501039098908,3.22,,-0.21,-0.04,1.02,-2,-7,5,0,810,0,,,,,,,,,,,,,,,
2996374,1501039098918,,,,,,,,,0,810,0,,,,,,,,,,,,,,,
2996384,1501039098928,,,,,,,,,0,810,0,,,,,,,,,,,,,,,
2996394,1501039098938,,,,,,,,,0,795,0,,,,,,,,,,,,,,,
2996404,1501039098948,3.21,,-0.16,-0.03,1.01,-2,-9,5,0,795,0,,,,,,,,,,,,,,,
2996414,1501039098958,,,,,,,,,0,795,0,,,,,,,,,,,,,,,
2996424,1501039098968,,,,,,,,,0,795,0,,,,,,,,,,,,,,,
2996434,1501039098978,,,,,,,,,0,720,0,,,,,,,,,,,,,,,
2996444,1501039098988,3.2,,-0.12,-0.02,1.0,-2,-10,5,0,720,0,36.113647,-115.146103,0.0,6.404,2040.1,9,3,2.0,0,0.0,-1,0.0,0.0,0.0,0
2996454,1501039098998,,,,,,,,,0,750,0,,,,,,,,,,,,,,,
2996464,1501039098998,,,,,,,,,0,750,0,,,,,,,,,,,,,,,
2996474,1501039099008,,,,,,,,,0,750,0,,,,,,,,,,,,,,,
2996484,1501039099018,3.21,,-0.09,-0.01,1.0,-2,-11,5,0,750,0,,,,,,,,,,,,,,,
2996494,1501039099028,,,,,,,,,0,750,0,,,,,,,,,,,,,,,
2996504,1501039099038,,,,,,,,,0,750,0,,,,,,,,,,,,,,,
2996514,1501039099048,,,,,,,,,0,735,0,,,,,,,,,,,,,,,
2996524,1501039099058,3.21,,-0.06,-0.01,0.99,-2,-11,5,0,735,0,,,,,,,,,,,,,,,
2996534,1501039099068,,,,,,,,,0,720,0,,,,,,,,,,,,,,,
2996544,1501039099078,,,,,,,,,0,720,0,36.113647,-115.146103,0.0,6.404,2039.9,9,3,2.0,0,0.0,-1,0.0,0.0,0.0,0
2996554,1501039099098,,,,,,,,,0,720,0,,,,,,,,,,,,,,,
2996564,1501039099108,3.22,,-0.02,-0.02,0.98,-2,-11,4,0,720,0,,,,,,,,,,,,,,,
2996574,1501039099118,,,,,,,,,0,720,0,,,,,,,,,,,,,,,
2996584,1501039099128,,,,,,,,,0,705,0,,,,,,,,,,,,,,,
2996594,1501039099138,,,,,,,,,0,705,0,,,,,,,,,,,,,,,
2996604,1501039099148,3.21,,0.0,-0.0,0.99,-2,-8,4,0,645,0,,,,,,,,,,,,,,,
2996614,1501039099158,,,,,,,,,0,645,0,,,,,,,,,,,,,,,
2996624,1501039099168,,,,,,,,,0,675,0,,,,,,,,,,,,,,,
2996634,1501039099178,,,,,,,,,0,675,0,,,,,,,,,,,,,,,
2996644,1501039099188,3.21,,0.03,0.01,0.99,-2,-7,4,0,675,0,36.113647,-115.146103,0.0,6.404,2039.9,9,3,2.0,0,0.0,-1,0.0,0.0,0.0,0
2996654,1501039099198,,,,,,,,,0,660,0,,,,,,,,,,,,,,,
2996664,1501039099208,,,,,,,,,0,660,0,,,,,,,,,,,,,,,
2996674,1501039099218,,,,,,,,,0,660,0,,,,,,,,,,,,,,,
2996684,1501039099228,3.21,,0.03,-0.0,0.99,-1,-7,3,0,660,0,,,,,,,,,,,,,,,
2996694,1501039099238,,,,,,,,,0,630,0,,,,,,,,,,,,,,,
2996704,1501039099248,,,,,,,,,0,630,0,,,,,,,,,,,,,,,
2996714,1501039099258,,,,,,,,,0,630,0,,,,,,,,,,,,,,,
2996724,1501039099268,3.21,,0.03,0.0,1.01,-2,-6,4,0,630,0,,,,,,,,,,,,,,,
2996734,1501039099278,,,,,,,,,0,630,0,,,,,,,,,,,,,,,
2996744,1501039099288,,,,,,,,,0,630,0,36.113647,-115.146103,0.0,6.404,2039.8,9,3,2.0,0,0.0,-1,0.0,0.0,0.0,0
2996754,1501039099298,,,,,,,,,0,630,0,,,,,,,,,,,,,,,
2996764,1501039099308,3.22,,0.02,-0.01,1.02,-2,-6,4,0,630,0,,,,,,,,,,,,,,,
2996774,1501039099318,,,,,,,,,0,615,0,,,,,,,,,,,,,,,
2996784,1501039099328,,,,,,,,,0,615,0,,,,,,,,,,,,,,,
2996794,1501039099338,,,,,,,,,0,540,0,,,,,,,,,,,,,,,
2996804,1501039099348,3.21,,-0.0,-0.01,1.01,-2,-6,4,0,540,0,,,,,,,,,,,,,,,
2996814,1501039099358,,,,,,,,,0,540,0,,,,,,,,,,,,,,,
2996824,1501039099368,,,,,,,,,0,570,0,,,,,,,,,,,,,,,
2996834,1501039099378,,,,,,,,,0,570,0,,,,,,,,,,,,,,,
2996844,1501039099388,3.21,,-0.0,-0.02,1.01,-2,-5,4,0,570,0,36.113647,-115.146103,0.0,6.404,2039.7,9,3,2.0,0,0.0,-1,0.0,0.0,0.0,0
2996854,1501039099398,,,,,,,,,0,555,0,,,,,,,,,,,,,,,
2996864,1501039099408,,,,,,,,,0,555,0,,,,,,,,,,,,,,,
2996874,1501039099418,,,,,,,,,0,555,0,,,,,,,,,,,,,,,
2996884,1501039099428,3.21,,0.01,-0.02,1.0,-2,-5,4,0,540,0,,,,,,,,,,,,,,,
2996894,1501039099438,,,,,,,,,0,540,0,,,,,,,,,,,,,,,
2996904,1501039099448,,,,,,,,,0,525,0,,,,,,,,,,,,,,,
2996914,1501039099458,,,,,,,,,0,525,0,,,,,,,,,,,,,,,
2996924,1501039099468,3.22,,0.02,-0.02,0.99,-2,-5,4,0,525,0,,,,,,,,,,,,,,,
2996934,1501039099478,,,,,,,,,0,525,0,,,,,,,,,,,,,,,
2996944,1501039099488,,,,,,,,,0,525,0,36.113647,-115.146103,0.0,6.404,2039.7,9,3,2.0,0,0.0,-1,0.0,0.0,0.0,0
2996954,1501039099498,,,,,,,,,0,525,0,,,,,,,,,,,,,,,
2996964,1501039099508,3.17,,0.02,-0.0,1.02,-2,-5,5,0,510,0,,,,,,,,,,,,,,,
2996974,1501039099518,,,,,,,,,0,510,0,,,,,,,,,,,,,,,
2996984,1501039099528,,,,,,,,,0,510,0,,,,,,,,,,,,,,,
2996994,1501039099538,,,,,,,,,0,510,0,,,,,,,,,,,,,,,
2997004,1501039099548,3.22,,0.01,-0.01,1.03,-2,-5,5,0,495,0,,,,,,,,,,,,,,,
2997014,1501039099558,,,,,,,,,0,495,0,,,,,,,,,,,,,,,
2997024,1501039099568,,,,,,,,,0,420,0,,,,,,,,,,,,,,,
2997034,1501039099578,,,,,,,,,0,420,0,,,,,,,,,,,,,,,
2997044,1501039099588,3.22,4.51,-0.01,-0.02,1.02,-1,-6,5,0,615,0,36.113647,-115.146103,0.0,6.404,2039.5,9,3,2.0,0,0.0,-1,0.0,0.0,0.0,0
2997054,1501039099598,,,,,,,,,0,615,0,,,,,,,,,,,,,,,
2997064,1501039099608,,,,,,,,,0,735,0,,,,,,,,,,,,,,,
2997074,1501039099618,,,,,,,,,0,735,0,,,,,,,,,,,,,,,
2997084,1501039099628,3.17,,-0.02,-0.03,1.0,-2,-5,5,0,735,0,,,,,,,,,,,,,,,
2997094,1501039099638,,,,,,,,,0,735,0,,,,,,,,,,,,,,,
2997104,1501039099648,,,,,,,,,0,720,0,,,,,,,,,,,,,,,
2997114,1501039099658,,,,,,,,,0,720,0,,,,,,,,,,,,,,,
2997124,1501039099668,3.16,,0.0,-0.01,0.97,-2,-6,5,0,720,0,,,,,,,,,,,,,,,
2997134,1501039099678,,,,,,,,,0,720,0,,,,,,,,,,,,,,,
2997144,1501039099688,,,,,,,,,0,720,0,36.113647,-115.146103,0.0,6.404,2039.5,9,3,1.9,0,0.0,-1,0.0,0.0,0.0,0
2997154,1501039099697,,,,,,,,,0,705,0,,,,,,,,,,,,,,,
2997164,1501039099707,3.24,,0.04,-0.01,0.98,-1,-5,5,0,705,0,,,,,,,,,,,,,,,
2997174,1501039099717,,,,,,,,,0,705,0,,,,,,,,,,,,,,,
2997184,1501039099727,,,,,,,,,0,705,0,,,,,,,,,,,,,,,
2997194,1501039099737,,,,,,,,,0,630,0,,,,,,,,,,,,,,,
2997204,1501039099747,3.23,,0.03,0.01,0.97,-1,-5,4,0,855,0,,,,,,,,,,,,,,,
2997214,1501039099757,,,,,,,,,0,855,0,,,,,,,,,,,,,,,
2997224,1501039099767,,,,,,,,,0,975,0,,,,,,,,,,,,,,,
2997234,1501039099777,,,,,,,,,0,960,0,,,,,,,,,,,,,,,
2997244,1501039099787,3.21,,0.01,0.0,0.97,-1,-7,4,0,960,0,36.113647,-115.146103,0.0,6.404,2039.5,9,3,1.9,0,0.0,-1,0.0,0.0,0.0,0
2997254,1501039099797,,,,,,,,,0,945,0,,,,,,,,,,,,,,,
2997264,1501039099807,,,,,,,,,0,960,0,,,,,,,,,,,,,,,
2997274,1501039099817,,,,,,,,,0,960,0,,,,,,,,,,,,,,,
2997284,1501039099827,3.2,,0.0,-0.02,0.98,-1,-6,4,0,945,0,,,,,,,,,,,,,,,
2997294,1501039099837,,,,,,,,,0,945,0,,,,,,,,,,,,,,,
2997304,1501039099847,,,,,,,,,0,945,0,,,,,,,,,,,,,,,
2997314,1501039099857,,,,,,,,,0,840,0,,,,,,,,,,,,,,,
2997324,1501039099867,3.17,,0.01,-0.04,1.08,-1,-5,5,0,1155,0,,,,,,,,,,,,,,,
2997334,1501039099877,,,,,,,,,0,1335,0,,,,,,,,,,,,,,,
2997344,1501039099887,,,,,,,,,0,1335,0,36.113647,-115.146103,0.0,6.404,2039.5,9,3,2.0,0,0.0,-1,0.0,0.0,0.0,0
2997354,1501039099897,,,,,,,,,0,1335,0,,,,,,,,,,,,,,,
2997364,1501039099907,3.16,,0.01,-0.03,1.17,-1,-5,4,0,1320,0,,,,,,,,,,,,,,,
2997374,1501039099917,,,,,,,,,0,1320,0,,,,,,,,,,,,,,,
2997384,1501039099927,,,,,,,,,0,1320,0,,,,,,,,,,,,,,,
2997394,1501039099937,,,,,,,,,0,1305,0,,,,,,,,,,,,,,,
2997404,1501039099947,3.14,,0.01,0.01,1.22,-1,-5,3,0,1230,0,,,,,,,,,,,,,,,
2997414,1501039099957,,,,,,,,,0,1485,0,,,,,,,,,,,,,,,
2997424,1501039099967,,,,,,,,,0,1635,0,,,,,,,,,,,,,,,
2997434,1501039099977,,,,,,,,,0,1620,0,,,,,,,,,,,,,,,
2997444,1501039099987,3.14,,0.05,0.05,1.15,-1,-6,4,0,1620,0,36.113647,-115.146103,0.0,6.404,2039.5,9,3,2.0,0,0.0,-1,0.0,0.0,0.0,0
2997454,1501039099991,,,,,,,,,0,1620,0,,,,,,,,,,,,,,,
2997464,1501039100001,,,,,,,,,0,1620,0,,,,,,,,,,,,,,,
2997474,1501039100011,,,,,,,,,0,1605,0,,,,,,,,,,,,,,,
2997484,1501039100021,3.15,,0.05,0.05,1.07,-2,-10,3,0,1785,0,,,,,,,,,,,,,,,
2997494,1501039100031,,,,,,,,,0,1905,0,,,,,,,,,,,,,,,
2997504,1501039100041,,,,,,,,,0,1890,0,,,,,,,,,,,,,,,
2997514,1501039100051,,,,,,,,,0,1905,0,,,,,,,,,,,,,,,
2997524,1501039100061,3.14,,0.02,0.02,0.99,-1,-9,4,0,1890,0,,,,,,,,,,,,,,,
2997534,1501039100071,,,,,,,,,0,1890,0,,,,,,,,,,,,,,,
2997544,1501039100081,,,,,,,,,0,1815,0,36.113647,-115.146103,0.0,6.404,2039.5,9,3,2.0,0,0.0,-1,0.0,0.0,0.0,0
2997554,1501039100097,,,,,,,,,0,2145,0,,,,,,,,,,,,,,,
2997564,1501039100107,3.19,,-0.03,0.07,0.85,-1,-8,2,0,2145,0,,,,,,,,,,,,,,,
2997574,1501039100117,,,,,,,,,0,2130,0,,,,,,,,,,,,,,,
2997584,1501039100127,,,,,,,,,0,2130,0,,,,,,,,,,,,,,,
2997594,1501039100137,,,,,,,,,0,2115,0,,,,,,,,,,,,,,,
2997604,1501039100147,3.17,,-0.03,0.03,0.8,-1,-9,0,0,2115,0,,,,,,,,,,,,,,,
2997614,1501039100157,,,,,,,,,0,2115,0,,,,,,,,,,,,,,,
2997624,1501039100167,,,,,,,,,0,2085,0,,,,,,,,,,,,,,,
2997634,1501039100177,,,,,,,,,0,2085,0,,,,,,,,,,,,,,,
2997644,1501039100187,3.12,,-0.06,0.05,0.83,-1,-10,0,0,2085,0,36.113647,-115.146103,0.0,6.404,2039.5,9,3,2.0,0,0.0,-1,0.0,0.0,0.0,0
2997654,1501039100199,,,,,,,,,0,2070,0,,,,,,,,,,,,,,,
2997664,1501039100209,,,,,,,,,0,2070,0,,,,,,,,,,,,,,,
2997674,1501039100219,,,,,,,,,0,2070,0,,,,,,,,,,,,,,,
2997684,1501039100229,3.16,,-0.01,0.04,0.8,-1,-10,1,0,2040,0,,,,,,,,,,,,,,,
2997694,1501039100239,,,,,,,,,0,2040,0,,,,,,,,,,,,,,,
2997704,1501039100249,,,,,,,,,0,2040,0,,,,,,,,,,,,,,,
2997714,1501039100259,,,,,,,,,0,1980,0,,,,,,,,,,,,,,,
2997724,1501039100269,3.19,,0.01,0.03,0.85,-1,-10,1,0,2025,0,,,,,,,,,,,,,,,
2997734,1501039100279,,,,,,,,,0,2010,0,,,,,,,,,,,,,,,
2997744,1501039100289,,,,,,,,,0,1995,0,36.113647,-115.146103,0.0,6.404,2039.5,9,3,2.0,0,0.0,-1,0.0,0.0,0.0,0
2997754,1501039100299,,,,,,,,,0,2010,0,,,,,,,,,,,,,,,
2997764,1501039100309,3.18,,0.0,0.05,0.87,-1,-11,1,0,1995,0,,,,,,,,,,,,,,,
2997774,1501039100319,,,,,,,,,0,1935,0,,,,,,,,,,,,,,,
2997784,1501039100329,,,,,,,,,0,2265,0,,,,,,,,,,,,,,,
2997794,1501039100339,,,,,,,,,0,2280,0,,,,,,,,,,,,,,,
2997804,1501039100349,3.16,,0.04,-0.02,0.9,-1,-10,2,0,2265,0,,,,,,,,,,,,,,,
2997814,1501039100359,,,,,,,,,0,2265,0,,,,,,,,,,,,,,,
2997824,1501039100369,,,,,,,,,0,2190,0,,,,,,,,,,,,,,,
2997834,1501039100379,,,,,,,,,0,2505,0,,,,,,,,,,,,,,,
2997844,1501039100389,3.15,,-0.06,-0.02,1.04,-0,-7,1,0,2490,0,36.113647,-115.146103,0.0,6.404,2039.5,9,3,2.0,0,0.0,-1,0.0,0.0,0.0,0
2997854,1501039100397,,,,,,,,,0,2490,0,,,,,,,,,,,,,,,
2997864,1501039100407,,,,,,,,,0,2460,0,,,,,,,,,,,,,,,
2997874,1501039100417,,,,,,,,,0,2460,0,,,,,,,,,,,,,,,
2997884,1501039100427,3.16,,0.03,-0.03,1.12,-1,-7,3,0,2460,0,,,,,,,,,,,,,,,
2997894,1501039100437,,,,,,,,,0,2445,0,,,,,,,,,,,,,,,
2997904,1501039100447,,,,,,,,,0,2430,0,,,,,,,,,,,,,,,
2997914,1501039100457,,,,,,,,,0,2430,0,,,,,,,,,,,,,,,
2997924,1501039100467,3.16,,0.06,-0.01,0.99,-1,-9,1,0,2415,0,,,,,,,,,,,,,,,
2997934,1501039100477,,,,,,,,,0,2400,0,,,,,,,,,,,,,,,
2997944,1501039100487,,,,,,,,,0,2415,0,36.113647,-115.146103,0.0,6.404,2039.2,9,3,1.9,0,0.0,-1,0.0,0.0,0.0,0
2997954,1501039100497,,,,,,,,,0,2400,0,,,,,,,,,,,,,,,
2997964,1501039100507,3.17,,0.02,0.04,1.0,-0,-7,0,0,2385,0,,,,,,,,,,,,,,,
2997974,1501039100517,,,,,,,,,0,2370,0,,,,,,,,,,,,,,,
2997984,1501039100527,,,,,,,,,0,2370,0,,,,,,,,,,,,,,,
2997994,1501039100537,,,,,,,,,0,2370,0,,,,,,,,,,,,,,,
