"Interval"|"ms"|0|0|1,"Utc"|"ms"|0|0|1,"Analog1"|""|0.0|5.0|25,"Battery"|"Volts"|0.0|20.0|1,"AccelX"|"G"|-3.0|3.0|25,"AccelY"|"G"|-3.0|3.0|25,"AccelZ"|"G"|-3.0|3.0|25,"Yaw"|"Deg/Sec"|-120|120|25,"Pitch"|"Deg/Sec"|-120|120|25,"Roll"|"Deg/Sec"|-120|120|25,"RPM"|""|0|10000|100,"EngineRPM"|""|0|10000|100,"AxleRpm"|""|0|10000|100,"Latitude"|"Degrees"|-180.0|180.0|10,"Longitude"|"Degrees"|-180.0|180.0|10,"Speed"|"mph"|0.0|150.0|10,"Distance"|"mi"|0.0|0.0|10,"Altitude"|"ft"|0.0|4000.0|10,"GPSSats"|""|0|20|10,"GPSQual"|""|0|5|10,"GPSDOP"|""|0.0|20.0|10,"LapCount"|""|0|0|10,"LapTime"|"Min"|0.0|0.0|10,"Sector"|""|0|0|10,"SectorTime"|"Min"|0.0|0.0|10,"PredTime"|"Min"|0.0|0.0|10,"ElapsedTime"|"Min"|0.0|0.0|10,"CurrentLap"|""|0|0|10
2778774,1501038881312,,,,,,,,,0,1650,0,,,,,,,,,,,,,,,
2778784,1501038881322,,,,,,,,,0,1620,0,,,,,,,,,,,,,,,
2778794,1501038881332,,,,,,,,,0,1575,0,,,,,,,,,,,,,,,
2778804,1501038881342,3.21,,-0.03,-0.02,0.88,-2,-9,4,0,1545,0,,,,,,,,,,,,,,,
2778814,1501038881352,,,,,,,,,0,1515,0,,,,,,,,,,,,,,,
2778824,1501038881362,,,,,,,,,0,1470,0,,,,,,,,,,,,,,,
2778834,1501038881372,,,,,,,,,0,1380,0,,,,,,,,,,,,,,,
2778844,1501038881382,3.21,,-0.03,-0.03,0.93,-2,-9,4,0,1560,0,36.113663,-115.145653,0.0,5.905,2038.3,9,3,1.9,0,0.0,-1,0.0,0.0,0.0,0
2778854,1501038881392,,,,,,,,,0,1635,0,,,,,,,,,,,,,,,
2778864,1501038881402,,,,,,,,,0,1605,0,,,,,,,,,,,,,,,
2778874,1501038881412,,,,,,,,,0,1575,0,,,,,,,,,,,,,,,
2778884,1501038881422,3.21,,0.01,-0.07,1.02,-2,-9,5,0,1545,0,,,,,,,,,,,,,,,
2778894,1501038881432,,,,,,,,,0,1500,0,,,,,,,,,,,,,,,
2778904,1501038881442,,,,,,,,,0,1470,0,,,,,,,,,,,,,,,
2778914,1501038881452,,,,,,,,,0,1380,0,,,,,,,,,,,,,,,
2778924,1501038881462,3.21,,0.0,-0.04,1.06,-3,-8,5,0,1575,0,,,,,,,,,,,,,,,
2778934,1501038881472,,,,,,,,,0,1650,0,,,,,,,,,,,,,,,
2778944,1501038881482,,,,,,,,,0,1620,0,36.113663,-115.145653,0.0,5.905,2038.3,9,3,1.9,0,0.0,-1,0.0,0.0,0.0,0
2778954,1501038881493,,,,,,,,,0,1575,0,,,,,,,,,,,,,,,
2778964,1501038881503,3.19,,0.02,-0.05,1.05,-2,-6,5,0,1545,0,,,,,,,,,,,,,,,
2778974,1501038881513,,,,,,,,,0,1515,0,,,,,,,,,,,,,,,
2778984,1501038881523,,,,,,,,,0,1485,0,,,,,,,,,,,,,,,
2778994,1501038881533,,,,,,,,,0,1380,0,,,,,,,,,,,,,,,
2779004,1501038881543,3.21,,0.05,-0.05,1.14,-3,-3,5,0,1575,0,,,,,,,,,,,,,,,
2779014,1501038881553,,,,,,,,,0,1650,0,,,,,,,,,,,,,,,
2779024,1501038881563,,,,,,,,,0,1620,0,,,,,,,,,,,,,,,
2779034,1501038881573,,,,,,,,,0,1575,0,,,,,,,,,,,,,,,
2779044,1501038881583,3.19,4.52,0.03,-0.06,1.15,-3,-2,5,0,1560,0,36.113663,-115.145653,0.0,5.905,2038.3,9,3,1.9,0,0.0,-1,0.0,0.0,0.0,0
2779054,1501038881593,,,,,,,,,0,1515,0,,,,,,,,,,,,,,,
2779064,1501038881603,,,,,,,,,0,1470,0,,,,,,,,,,,,,,,
2779074,1501038881613,,,,,,,,,0,1395,0,,,,,,,,,,,,,,,
2779084,1501038881623,3.15,,0.03,-0.05,1.27,-3,1,6,0,1635,0,,,,,,,,,,,,,,,
2779094,1501038881633,,,,,,,,,0,1620,0,,,,,,,,,,,,,,,
2779104,1501038881643,,,,,,,,,0,1575,0,,,,,,,,,,,,,,,
2779114,1501038881653,,,,,,,,,0,1545,0,,,,,,,,,,,,,,,
2779124,1501038881663,3.15,,0.03,-0.04,1.19,-3,-1,5,0,1500,0,,,,,,,,,,,,,,,
2779134,1501038881673,,,,,,,,,0,1470,0,,,,,,,,,,,,,,,
2779144,1501038881683,,,,,,,,,0,1395,0,36.113663,-115.145653,0.0,5.905,2038.3,9,3,1.9,0,0.0,-1,0.0,0.0,0.0,0
2779154,1501038881693,,,,,,,,,0,1560,0,,,,,,,,,,,,,,,
2779164,1501038881703,3.18,,0.03,-0.04,1.2,-3,-3,4,0,1635,0,,,,,,,,,,,,,,,
2779174,1501038881713,,,,,,,,,0,1620,0,,,,,,,,,,,,,,,
2779184,1501038881723,,,,,,,,,0,1575,0,,,,,,,,,,,,,,,
2779194,1501038881733,,,,,,,,,0,1545,0,,,,,,,,,,,,,,,
2779204,1501038881743,3.22,,0.01,-0.01,1.19,-2,-4,3,0,1500,0,,,,,,,,,,,,,,,
2779214,1501038881753,,,,,,,,,0,1470,0,,,,,,,,,,,,,,,
2779224,1501038881763,,,,,,,,,0,1380,0,,,,,,,,,,,,,,,
2779234,1501038881773,,,,,,,,,0,1560,0,,,,,,,,,,,,,,,
2779244,1501038881783,3.18,,0.01,-0.02,1.16,-1,-5,2,0,1635,0,36.113663,-115.145653,0.0,5.905,2038.3,9,3,1.9,0,0.0,-1,0.0,0.0,0.0,0
2779254,1501038881793,,,,,,,,,0,1605,0,,,,,,,,,,,,,,,
2779264,1501038881803,,,,,,,,,0,1575,0,,,,,,,,,,,,,,,
2779274,1501038881813,,,,,,,,,0,1545,0,,,,,,,,,,,,,,,
2779284,1501038881823,3.17,,0.01,-0.0,1.08,-1,-6,3,0,1500,0,,,,,,,,,,,,,,,
2779294,1501038881833,,,,,,,,,0,1470,0,,,,,,,,,,,,,,,
2779304,1501038881843,,,,,,,,,0,1380,0,,,,,,,,,,,,,,,
2779314,1501038881853,,,,,,,,,0,1560,0,,,,,,,,,,,,,,,
2779324,1501038881863,3.18,,0.02,-0.03,0.98,-0,-7,2,0,1635,0,,,,,,,,,,,,,,,
2779334,1501038881873,,,,,,,,,0,1605,0,,,,,,,,,,,,,,,
2779344,1501038881883,,,,,,,,,0,1575,0,36.113663,-115.145653,0.0,5.905,2038.3,9,3,1.9,0,0.0,-1,0.0,0.0,0.0,0
2779354,1501038881893,,,,,,,,,0,1545,0,,,,,,,,,,,,,,,
2779364,1501038881903,3.23,,0.03,-0.02,0.94,-1,-9,3,0,1500,0,,,,,,,,,,,,,,,
2779374,1501038881913,,,,,,,,,0,1470,0,,,,,,,,,,,,,,,
2779384,1501038881923,,,,,,,,,0,1380,0,,,,,,,,,,,,,,,
2779394,1501038881933,,,,,,,,,0,1560,0,,,,,,,,,,,,,,,
2779404,1501038881943,3.24,,0.04,0.01,0.87,-1,-9,3,0,1650,0,,,,,,,,,,,,,,,
2779414,1501038881953,,,,,,,,,0,1620,0,,,,,,,,,,,,,,,
2779424,1501038881963,,,,,,,,,0,1575,0,,,,,,,,,,,,,,,
2779434,1501038881973,,,,,,,,,0,1545,0,,,,,,,,,,,,,,,
2779444,1501038881983,3.22,,0.02,-0.0,0.88,-1,-9,2,0,1515,0,36.113663,-115.145653,0.0,5.905,2038.3,9,3,1.9,0,0.0,-1,0.0,0.0,0.0,0
2779454,1501038881993,,,,,,,,,0,1485,0,,,,,,,,,,,,,,,
2779464,1501038881995,,,,,,,,,0,1575,0,,,,,,,,,,,,,,,
2779474,1501038882005,,,,,,,,,0,1650,0,,,,,,,,,,,,,,,
2779484,1501038882015,3.22,,0.01,0.01,0.84,-1,-10,2,0,1620,0,,,,,,,,,,,,,,,
2779494,1501038882025,,,,,,,,,0,1575,0,,,,,,,,,,,,,,,
2779504,1501038882035,,,,,,,,,0,1545,0,,,,,,,,,,,,,,,
2779514,1501038882045,,,,,,,,,0,1515,0,,,,,,,,,,,,,,,
2779524,1501038882055,3.16,,-0.01,-0.02,0.87,-1,-7,2,0,1470,0,,,,,,,,,,,,,,,
2779534,1501038882065,,,,,,,,,0,1395,0,,,,,,,,,,,,,,,
2779544,1501038882075,,,,,,,,,0,1575,0,36.113663,-115.145653,0.0,5.905,2038.3,9,3,1.9,0,0.0,-1,0.0,0.0,0.0,0
2779554,1501038882093,,,,,,,,,0,1650,0,,,,,,,,,,,,,,,
2779564,1501038882103,3.21,,-0.05,-0.02,0.88,-1,-7,1,0,1620,0,,,,,,,,,,,,,,,
2779574,1501038882113,,,,,,,,,0,1590,0,,,,,,,,,,,,,,,
2779584,1501038882123,,,,,,,,,0,1560,0,,,,,,,,,,,,,,,
2779594,1501038882133,,,,,,,,,0,1515,0,,,,,,,,,,,,,,,
2779604,1501038882143,3.21,,-0.05,-0.04,0.9,-1,-5,2,0,1485,0,,,,,,,,,,,,,,,
2779614,1501038882153,,,,,,,,,0,1395,0,,,,,,,,,,,,,,,
2779624,1501038882163,,,,,,,,,0,1575,0,,,,,,,,,,,,,,,
2779634,1501038882173,,,,,,,,,0,1650,0,,,,,,,,,,,,,,,
2779644,1501038882183,3.19,,-0.08,-0.03,0.89,-2,-2,4,0,1620,0,36.113663,-115.145653,0.0,5.905,2038.3,9,3,2.2,0,0.0,-1,0.0,0.0,0.0,0
2779654,1501038882193,,,,,,,,,0,1590,0,,,,,,,,,,,,,,,
2779664,1501038882203,,,,,,,,,0,1545,0,,,,,,,,,,,,,,,
2779674,1501038882213,,,,,,,,,0,1515,0,,,,,,,,,,,,,,,
2779684,1501038882223,3.2,,-0.04,-0.04,1.02,-2,-1,4,0,1485,0,,,,,,,,,,,,,,,
2779694,1501038882233,,,,,,,,,0,1395,0,,,,,,,,,,,,,,,
2779704,1501038882243,,,,,,,,,0,1575,0,,,,,,,,,,,,,,,
2779714,1501038882253,,,,,,,,,0,1650,0,,,,,,,,,,,,,,,
2779724,1501038882263,3.19,,-0.03,-0.06,1.06,-3,1,5,0,1620,0,,,,,,,,,,,,,,,
2779734,1501038882273,,,,,,,,,0,1575,0,,,,,,,,,,,,,,,
2779744,1501038882283,,,,,,,,,0,1560,0,36.113663,-115.145653,0.0,5.905,2038.3,9,3,2.2,0,0.0,-1,0.0,0.0,0.0,0
2779754,1501038882293,,,,,,,,,0,1515,0,,,,,,,,,,,,,,,
2779764,1501038882303,3.2,,-0.02,-0.03,1.13,-3,0,6,0,1485,0,,,,,,,,,,,,,,,
2779774,1501038882313,,,,,,,,,0,1575,0,,,,,,,,,,,,,,,
2779784,1501038882323,,,,,,,,,0,1650,0,,,,,,,,,,,,,,,
2779794,1501038882333,,,,,,,,,0,1620,0,,,,,,,,,,,,,,,
2779804,1501038882343,3.19,,0.0,-0.07,1.18,-2,-1,6,0,1590,0,,,,,,,,,,,,,,,
2779814,1501038882353,,,,,,,,,0,1545,0,,,,,,,,,,,,,,,
2779824,1501038882363,,,,,,,,,0,1515,0,,,,,,,,,,,,,,,
2779834,1501038882373,,,,,,,,,0,1485,0,,,,,,,,,,,,,,,
2779844,1501038882383,3.18,,-0.01,-0.02,1.12,-1,-2,3,0,1395,0,36.113663,-115.145653,0.0,5.905,2038.3,9,3,1.9,0,0.0,-1,0.0,0.0,0.0,0
2779854,1501038882393,,,,,,,,,0,1575,0,,,,,,,,,,,,,,,
2779864,1501038882403,,,,,,,,,0,1650,0,,,,,,,,,,,,,,,
2779874,1501038882413,,,,,,,,,0,1620,0,,,,,,,,,,,,,,,
2779884,1501038882423,3.2,,0.01,-0.01,1.13,-1,-4,3,0,1590,0,,,,,,,,,,,,,,,
2779894,1501038882433,,,,,,,,,0,1560,0,,,,,,,,,,,,,,,
2779904,1501038882443,,,,,,,,,0,1515,0,,,,,,,,,,,,,,,
2779914,1501038882453,,,,,,,,,0,1485,0,,,,,,,,,,,,,,,
2779924,1501038882463,3.18,,0.0,-0.0,1.06,-1,-4,4,0,1395,0,,,,,,,,,,,,,,,
2779934,1501038882473,,,,,,,,,0,1575,0,,,,,,,,,,,,,,,
2779944,1501038882483,,,,,,,,,0,1650,0,36.113663,-115.145653,0.0,5.905,2038.3,9,3,1.9,0,0.0,-1,0.0,0.0,0.0,0
2779954,1501038882492,,,,,,,,,0,1620,0,,,,,,,,,,,,,,,
2779964,1501038882502,3.2,,0.03,0.01,0.99,-1,-6,2,0,1575,0,,,,,,,,,,,,,,,
2779974,1501038882512,,,,,,,,,0,1560,0,,,,,,,,,,,,,,,
2779984,1501038882522,,,,,,,,,0,1515,0,,,,,,,,,,,,,,,
2779994,1501038882532,,,,,,,,,0,1485,0,,,,,,,,,,,,,,,
2780004,1501038882542,3.17,,0.05,-0.0,0.95,-1,-8,3,0,1395,0,,,,,,,,,,,,,,,
2780014,1501038882552,,,,,,,,,0,1575,0,,,,,,,,,,,,,,,
2780024,1501038882562,,,,,,,,,0,1650,0,,,,,,,,,,,,,,,
2780034,1501038882572,,,,,,,,,0,1620,0,,,,,,,,,,,,,,,
2780044,1501038882582,3.19,4.47,0.04,0.04,0.89,-1,-9,3,0,1575,0,36.113663,-115.145653,0.0,5.905,2038.3,9,3,1.9,0,0.0,-1,0.0,0.0,0.0,0
2780054,1501038882592,,,,,,,,,0,1545,0,,,,,,,,,,,,,,,
2780064,1501038882602,,,,,,,,,0,1515,0,,,,,,,,,,,,,,,
2780074,1501038882612,,,,,,,,,0,1485,0,,,,,,,,,,,,,,,
2780084,1501038882622,3.16,,0.03,0.02,0.87,-1,-10,2,0,1575,0,,,,,,,,,,,,,,,
2780094,1501038882632,,,,,,,,,0,1650,0,,,,,,,,,,,,,,,
2780104,1501038882642,,,,,,,,,0,1620,0,,,,,,,,,,,,,,,
2780114,1501038882652,,,,,,,,,0,1575,0,,,,,,,,,,,,,,,
2780124,1501038882662,3.2,,0.01,0.02,0.87,-1,-9,3,0,1545,0,,,,,,,,,,,,,,,
2780134,1501038882672,,,,,,,,,0,1515,0,,,,,,,,,,,,,,,
2780144,1501038882682,,,,,,,,,0,1485,0,36.113663,-115.145653,0.0,5.905,2038.3,9,3,1.9,0,0.0,-1,0.0,0.0,0.0,0
2780154,1501038882692,,,,,,,,,0,1395,0,,,,,,,,,,,,,,,
2780164,1501038882702,3.21,,-0.02,0.0,0.87,-1,-8,3,0,1575,0,,,,,,,,,,,,,,,
2780174,1501038882712,,,,,,,,,0,1635,0,,,,,,,,,,,,,,,
2780184,1501038882722,,,,,,,,,0,1620,0,,,,,,,,,,,,,,,
2780194,1501038882732,,,,,,,,,0,1575,0,,,,,,,,,,,,,,,
2780204,1501038882742,3.21,,-0.05,-0.02,0.92,-1,-5,2,0,1545,0,,,,,,,,,,,,,,,
2780214,1501038882752,,,,,,,,,0,1515,0,,,,,,,,,,,,,,,
2780224,1501038882762,,,,,,,,,0,1470,0,,,,,,,,,,,,,,,
2780234,1501038882772,,,,,,,,,0,1395,0,,,,,,,,,,,,,,,
2780244,1501038882782,3.21,,-0.05,-0.0,0.9,-2,-3,5,0,1560,0,36.113663,-115.145653,0.0,5.905,2038.3,9,3,1.9,0,0.0,-1,0.0,0.0,0.0,0
2780254,1501038882792,,,,,,,,,0,1650,0,,,,,,,,,,,,,,,
2780264,1501038882802,,,,,,,,,0,1620,0,,,,,,,,,,,,,,,
2780274,1501038882812,,,,,,,,,0,1575,0,,,,,,,,,,,,,,,
2780284,1501038882822,3.2,,-0.06,-0.04,0.93,-2,-1,4,0,1545,0,,,,,,,,,,,,,,,
2780294,1501038882832,,,,,,,,,0,1515,0,,,,,,,,,,,,,,,
2780304,1501038882842,,,,,,,,,0,1485,0,,,,,,,,,,,,,,,
2780314,1501038882852,,,,,,,,,0,1395,0,,,,,,,,,,,,,,,
2780324,1501038882862,3.2,,-0.02,-0.02,1.05,-2,0,5,0,1575,0,,,,,,,,,,,,,,,
2780334,1501038882872,,,,,,,,,0,1650,0,,,,,,,,,,,,,,,
2780344,1501038882882,,,,,,,,,0,1620,0,36.113663,-115.145653,0.0,5.905,2038.3,9,3,1.9,0,0.0,-1,0.0,0.0,0.0,0
2780354,1501038882892,,,,,,,,,0,1575,0,,,,,,,,,,,,,,,
2780364,1501038882902,3.2,,0.03,-0.07,1.13,-3,-2,5,0,1560,0,,,,,,,,,,,,,,,
2780374,1501038882912,,,,,,,,,0,1515,0,,,,,,,,,,,,,,,
2780384,1501038882922,,,,,,,,,0,1485,0,,,,,,,,,,,,,,,
2780394,1501038882932,,,,,,,,,0,1590,0,,,,,,,,,,,,,,,
2780404,1501038882942,3.2,,0.06,-0.05,1.23,-2,-3,6,0,1665,0,,,,,,,,,,,,,,,
2780414,1501038882952,,,,,,,,,0,1635,0,,,,,,,,,,,,,,,
2780424,1501038882962,,,,,,,,,0,1605,0,,,,,,,,,,,,,,,
2780434,1501038882972,,,,,,,,,0,1575,0,,,,,,,,,,,,,,,
2780444,1501038882982,3.21,,0.09,0.01,1.22,-2,-4,3,0,1530,0,36.113663,-115.145653,0.0,5.905,2038.3,9,3,1.9,0,0.0,-1,0.0,0.0,0.0,0
2780454,1501038882992,,,,,,,,,0,1500,430,,,,,,,,,,,,,,,
2780464,1501038882994,,,,,,,,,0,1410,430,,,,,,,,,,,,,,,
2780474,1501038883004,,,,,,,,,0,1575,430,,,,,,,,,,,,,,,
2780484,1501038883014,3.26,,0.14,0.04,1.19,-0,-6,-0,0,1650,430,,,,,,,,,,,,,,,
2780494,1501038883024,,,,,,,,,0,1620,430,,,,,,,,,,,,,,,
2780504,1501038883034,,,,,,,,,0,1575,430,,,,,,,,,,,,,,,
2780514,1501038883044,,,,,,,,,0,1545,430,,,,,,,,,,,,,,,
2780524,1501038883054,3.26,,0.18,0.06,1.1,-0,-8,0,0,1515,430,,,,,,,,,,,,,,,
2780534,1501038883064,,,,,,,,,0,1485,430,,,,,,,,,,,,,,,
2780544,1501038883074,,,,,,,,,0,1380,430,36.113663,-115.145653,0.0,5.905,2038.3,9,3,1.9,0,0.0,-1,0.0,0.0,0.0,0
2780554,1501038883092,,,,,,,,,0,1620,430,,,,,,,,,,,,,,,
2780564,1501038883102,3.26,,0.2,0.07,0.99,-0,-9,0,0,1710,430,,,,,,,,,,,,,,,
2780574,1501038883112,,,,,,,,,0,1695,430,,,,,,,,,,,,,,,
2780584,1501038883122,,,,,,,,,0,1635,430,,,,,,,,,,,,,,,
2780594,1501038883132,,,,,,,,,0,1605,430,,,,,,,,,,,,,,,
2780604,1501038883142,3.19,,0.21,0.04,0.94,0,-11,-1,0,1575,0,,,,,,,,,,,,,,,
2780614,1501038883152,,,,,,,,,0,1455,0,,,,,,,,,,,,,,,
2780624,1501038883162,,,,,,,,,0,1665,0,,,,,,,,,,,,,,,
2780634,1501038883172,,,,,,,,,0,1770,0,,,,,,,,,,,,,,,
2780644,1501038883182,3.2,,0.19,0.03,0.82,1,-10,-2,0,1740,0,36.113663,-115.145653,0.0,5.905,2038.3,9,3,1.9,0,0.0,-1,0.0,0.0,0.0,0
2780654,1501038883192,,,,,,,,,0,1695,0,,,,,,,,,,,,,,,
2780664,1501038883202,,,,,,,,,0,1665,0,,,,,,,,,,,,,,,
2780674,1501038883212,,,,,,,,,0,1635,0,,,,,,,,,,,,,,,
2780684,1501038883222,3.17,,0.28,0.0,0.94,1,-11,2,0,1590,0,,,,,,,,,,,,,,,
2780694,1501038883232,,,,,,,,,0,1650,0,,,,,,,,,,,,,,,
2780704,1501038883242,,,,,,,,,0,1740,0,,,,,,,,,,,,,,,
2780714,1501038883252,,,,,,,,,0,1710,0,,,,,,,,,,,,,,,
2780724,1501038883262,3.08,,0.38,0.02,1.01,1,-13,4,0,1665,0,,,,,,,,,,,,,,,
2780734,1501038883272,,,,,,,,,0,1650,0,,,,,,,,,,,,,,,
2780744,1501038883282,,,,,,,,,0,1620,0,36.113663,-115.145653,0.0,5.905,2038.3,9,3,1.9,0,0.0,-1,0.0,0.0,0.0,0
2780754,1501038883294,,,,,,,,,0,1575,0,,,,,,,,,,,,,,,
2780764,1501038883304,3.1,,0.4,-0.01,1.0,0,-11,5,0,1485,190,,,,,,,,,,,,,,,
2780774,1501038883314,,,,,,,,,0,1695,190,,,,,,,,,,,,,,,
2780784,1501038883324,,,,,,,,,0,1770,190,,,,,,,,,,,,,,,
2780794,1501038883334,,,,,,,,,0,1725,190,,,,,,,,,,,,,,,
2780804,1501038883344,3.11,,0.45,0.01,1.01,1,-10,5,0,1695,190,,,,,,,,,,,,,,,
2780814,1501038883354,,,,,,,,,0,1665,190,,,,,,,,,,,,,,,
2780824,1501038883364,,,,,,,,,0,1620,190,,,,,,,,,,,,,,,
2780834,1501038883374,,,,,,,,,0,1530,190,,,,,,,,,,,,,,,
2780844,1501038883384,3.14,,0.44,0.02,0.94,0,-8,5,0,1755,190,36.113663,-115.145653,0.0,5.905,2038.3,9,3,1.9,0,0.0,-1,0.0,0.0,0.0,0
2780854,1501038883392,,,,,,,,,0,1830,190,,,,,,,,,,,,,,,
2780864,1501038883402,,,,,,,,,0,1800,10000000,,,,,,,,,,,,,,,
2780874,1501038883412,,,,,,,,,0,1770,0,,,,,,,,,,,,,,,
2780884,1501038883422,3.15,,0.41,0.03,0.9,0,-6,4,0,1755,0,,,,,,,,,,,,,,,
2780894,1501038883432,,,,,,,,,0,1710,0,,,,,,,,,,,,,,,
2780904,1501038883442,,,,,,,,,0,1860,0,,,,,,,,,,,,,,,
2780914,1501038883452,,,,,,,,,0,1935,0,,,,,,,,,,,,,,,
2780924,1501038883462,3.17,,0.42,0.02,0.87,0,-5,6,0,1935,140,,,,,,,,,,,,,,,
2780934,1501038883472,,,,,,,,,0,1905,140,,,,,,,,,,,,,,,
2780944,1501038883482,,,,,,,,,0,1860,140,36.113663,-115.145653,1.1,5.905,2041.5,9,3,1.9,0,0.0,-1,0.0,0.0,0.0,0
2780954,1501038883493,,,,,,,,,0,1830,140,,,,,,,,,,,,,,,
2780964,1501038883503,3.17,,0.39,-0.01,0.9,1,-2,4,0,1755,140,,,,,,,,,,,,,,,
2780974,1501038883513,,,,,,,,,0,1980,140,,,,,,,,,,,,,,,
2780984,1501038883523,,,,,,,,,0,2055,140,,,,,,,,,,,,,,,
2780994,1501038883533,,,,,,,,,0,2025,140,,,,,,,,,,,,,,,
2781004,1501038883543,3.18,,0.38,-0.02,1.03,1,-1,5,0,2010,140,,,,,,,,,,,,,,,
2781014,1501038883553,,,,,,,,,0,1965,140,,,,,,,,,,,,,,,
2781024,1501038883563,,,,,,,,,0,1890,140,,,,,,,,,,,,,,,
2781034,1501038883573,,,,,,,,,0,2160,10000000,,,,,,,,,,,,,,,
2781044,1501038883583,3.13,4.49,0.31,-0.04,1.04,2,1,4,0,2160,0,36.113663,-115.145653,1.59,5.905,2041.3,9,3,1.9,0,0.0,-1,0.0,0.0,0.0,0
2781054,1501038883591,,,,,,,,,0,2130,230,,,,,,,,,,,,,,,
2781064,1501038883601,,,,,,,,,0,2100,230,,,,,,,,,,,,,,,
2781074,1501038883611,,,,,,,,,0,2070,230,,,,,,,,,,,,,,,
2781084,1501038883621,3.14,,0.36,-0.05,1.05,2,-1,2,0,2190,230,,,,,,,,,,,,,,,
2781094,1501038883631,,,,,,,,,0,2280,230,,,,,,,,,,,,,,,
2781104,1501038883641,,,,,,,,,0,2235,230,,,,,,,,,,,,,,,
2781114,1501038883651,,,,,,,,,0,2205,230,,,,,,,,,,,,,,,
2781124,1501038883661,3.1,,0.36,-0.05,1.06,2,1,2,0,2175,230,,,,,,,,,,,,,,,
2781134,1501038883671,,,,,,,,,0,2100,230,,,,,,,,,,,,,,,
2781144,1501038883681,,,,,,,,,0,2355,230,36.113663,-115.145653,3.54,5.905,2041.3,9,3,1.9,0,0.0,-1,0.0,0.0,0.0,0
2781154,1501038883691,,,,,,,,,0,2355,430,,,,,,,,,,,,,,,
2781164,1501038883701,3.15,,0.37,-0.05,0.94,1,-6,3,0,2310,430,,,,,,,,,,,,,,,
2781174,1501038883711,,,,,,,,,0,2295,430,,,,,,,,,,,,,,,
2781184,1501038883721,,,,,,,,,0,2205,430,,,,,,,,,,,,,,,
2781194,1501038883731,,,,,,,,,0,2430,430,,,,,,,,,,,,,,,
2781204,1501038883741,3.09,,0.36,-0.08,1.07,0,-2,2,0,2430,430,,,,,,,,,,,,,,,
2781214,1501038883751,,,,,,,,,0,2385,430,,,,,,,,,,,,,,,
2781224,1501038883761,,,,,,,,,0,2385,430,,,,,,,,,,,,,,,
2781234,1501038883771,,,,,,,,,0,2280,430,,,,,,,,,,,,,,,
2781244,1501038883781,3.05,,0.39,-0.05,1.02,-1,-5,3,0,2535,430,36.113663,-115.145653,4.71,5.905,2041.2,9,3,1.9,0,0.0,-1,0.0,0.0,0.0,0
2781254,1501038883791,,,,,,,,,0,2490,820,,,,,,,,,,,,,,,
2781264,1501038883801,,,,,,,,,0,2490,820,,,,,,,,,,,,,,,
2781274,1501038883811,,,,,,,,,0,2430,820,,,,,,,,,,,,,,,
2781284,1501038883821,3.21,,0.36,-0.06,1.01,-1,-2,3,0,2370,820,,,,,,,,,,,,,,,
2781294,1501038883831,,,,,,,,,0,2595,820,,,,,,,,,,,,,,,
2781304,1501038883841,,,,,,,,,0,2535,820,,,,,,,,,,,,,,,
2781314,1501038883851,,,,,,,,,0,2520,820,,,,,,,,,,,,,,,
2781324,1501038883861,3.18,,0.44,-0.09,1.07,0,-5,0,0,2475,820,,,,,,,,,,,,,,,
2781334,1501038883871,,,,,,,,,0,2565,820,,,,,,,,,,,,,,,
2781344,1501038883881,,,,,,,,,0,2655,2520,36.113663,-115.145653,5.42,5.906,2041.2,9,3,1.9,0,0.0,-1,0.0,0.0,0.0,0
2781354,1501038883891,,,,,,,,,0,2580,2520,,,,,,,,,,,,,,,
2781364,1501038883901,3.23,,0.39,-0.07,0.92,0,-7,1,0,2550,2520,,,,,,,,,,,,,,,
2781374,1501038883911,,,,,,,,,0,2535,2520,,,,,,,,,,,,,,,
2781384,1501038883921,,,,,,,,,0,2625,2520,,,,,,,,,,,,,,,
2781394,1501038883931,,,,,,,,,0,2670,2520,,,,,,,,,,,,,,,
2781404,1501038883941,3.19,,0.34,-0.04,0.74,0,-6,0,0,2625,2520,,,,,,,,,,,,,,,
2781414,1501038883951,,,,,,,,,0,2610,2520,,,,,,,,,,,,,,,
2781424,1501038883961,,,,,,,,,0,2535,2520,,,,,,,,,,,,,,,
2781434,1501038883971,,,,,,,,,0,2730,110,,,,,,,,,,,,,,,
2781444,1501038883981,3.2,,0.29,0.01,0.91,1,-2,-1,0,2685,110,36.113663,-115.145668,6.32,5.906,2041.2,9,3,1.9,0,0.0,-1,0.0,0.0,0.0,0
2781454,1501038883991,,,,,,,,,0,2640,110,,,,,,,,,,,,,,,
2781464,1501038883995,,,,,,,,,0,2610,110,,,,,,,,,,,,,,,
2781474,1501038884005,,,,,,,,,0,2685,110,,,,,,,,,,,,,,,
2781484,1501038884015,3.21,,0.37,-0.04,1.06,0,-5,2,0,2730,110,,,,,,,,,,,,,,,
2781494,1501038884025,,,,,,,,,0,2700,110,,,,,,,,,,,,,,,
2781504,1501038884035,,,,,,,,,0,2640,120,,,,,,,,,,,,,,,
2781514,1501038884045,,,,,,,,,0,2595,120,,,,,,,,,,,,,,,
2781524,1501038884055,3.19,,0.38,-0.01,0.89,1,-6,2,0,2805,120,,,,,,,,,,,,,,,
2781534,1501038884065,,,,,,,,,0,2730,120,,,,,,,,,,,,,,,
2781544,1501038884075,,,,,,,,,0,2715,120,36.113663,-115.145668,6.72,5.906,2041.1,9,3,1.9,0,0.0,-1,0.0,0.0,0.0,0
2781554,1501038884093,,,,,,,,,0,2610,120,,,,,,,,,,,,,,,
2781564,1501038884103,3.08,,0.37,-0.11,0.66,-0,-9,4,0,2760,120,,,,,,,,,,,,,,,
2781574,1501038884113,,,,,,,,,0,2790,120,,,,,,,,,,,,,,,
2781584,1501038884123,,,,,,,,,0,2745,130,,,,,,,,,,,,,,,
2781594,1501038884133,,,,,,,,,0,2685,130,,,,,,,,,,,,,,,
2781604,1501038884143,3.13,,0.39,-0.14,0.67,0,-10,4,0,2775,130,,,,,,,,,,,,,,,
2781614,1501038884153,,,,,,,,,0,2805,130,,,,,,,,,,,,,,,
2781624,1501038884163,,,,,,,,,0,2790,130,,,,,,,,,,,,,,,
2781634,1501038884173,,,,,,,,,0,2730,130,,,,,,,,,,,,,,,
2781644,1501038884183,3.16,,0.32,-0.07,0.89,0,-5,6,0,2685,140,36.113663,-115.145668,7.23,5.906,2041.1,9,3,1.9,0,0.0,-1,0.0,0.0,0.0,0
2781654,1501038884191,,,,,,,,,0,2835,140,,,,,,,,,,,,,,,
2781664,1501038884201,,,,,,,,,0,2820,140,,,,,,,,,,,,,,,
2781674,1501038884211,,,,,,,,,0,2745,140,,,,,,,,,,,,,,,
2781684,1501038884221,3.18,,0.32,-0.02,1.1,0,-4,3,0,2685,140,,,,,,,,,,,,,,,
2781694,1501038884231,,,,,,,,,0,2850,140,,,,,,,,,,,,,,,
2781704,1501038884241,,,,,,,,,0,2820,140,,,,,,,,,,,,,,,
2781714,1501038884251,,,,,,,,,0,2820,150,,,,,,,,,,,,,,,
2781724,1501038884261,3.19,,0.35,0.07,1.19,-2,-1,5,0,2745,150,,,,,,,,,,,,,,,
2781734,1501038884271,,,,,,,,,0,2835,150,,,,,,,,,,,,,,,
2781744,1501038884281,,,,,,,,,0,2850,150,36.113663,-115.145676,8.12,5.906,2041.1,9,3,1.9,0,0.0,-1,0.0,0.0,0.0,0
2781754,1501038884293,,,,,,,,,0,2805,150,,,,,,,,,,,,,,,
2781764,1501038884303,3.11,,0.36,0.04,1.04,-2,-3,6,0,2745,150,,,,,,,,,,,,,,,
2781774,1501038884313,,,,,,,,,0,2700,150,,,,,,,,,,,,,,,
2781784,1501038884323,,,,,,,,,0,2865,150,,,,,,,,,,,,,,,
2781794,1501038884333,,,,,,,,,0,2850,150,,,,,,,,,,,,,,,
2781804,1501038884343,3.17,,0.33,0.02,0.73,-1,-6,6,0,2790,150,,,,,,,,,,,,,,,
2781814,1501038884353,,,,,,,,,0,2715,150,,,,,,,,,,,,,,,
2781824,1501038884363,,,,,,,,,0,2880,150,,,,,,,,,,,,,,,
2781834,1501038884373,,,,,,,,,0,2835,160,,,,,,,,,,,,,,,
2781844,1501038884383,3.14,,0.3,-0.03,0.47,-1,-8,4,0,2760,160,36.113663,-115.145676,8.85,5.907,2041.1,9,3,1.9,0,0.0,-1,0.0,0.0,0.0,0
2781854,1501038884391,,,,,,,,,0,2745,160,,,,,,,,,,,,,,,
2781864,1501038884401,,,,,,,,,0,2850,160,,,,,,,,,,,,,,,
2781874,1501038884411,,,,,,,,,0,2865,160,,,,,,,,,,,,,,,
2781884,1501038884421,3.2,,0.39,-0.09,0.44,-2,-11,6,0,2820,160,,,,,,,,,,,,,,,
2781894,1501038884431,,,,,,,,,0,2760,160,,,,,,,,,,,,,,,
2781904,1501038884441,,,,,,,,,0,2835,160,,,,,,,,,,,,,,,
2781914,1501038884451,,,,,,,,,0,2880,160,,,,,,,,,,,,,,,
2781924,1501038884461,3.17,,0.37,-0.03,0.56,-1,-7,9,0,2820,160,,,,,,,,,,,,,,,
2781934,1501038884471,,,,,,,,,0,2805,160,,,,,,,,,,,,,,,
2781944,1501038884481,,,,,,,,,0,2700,160,36.113663,-115.145676,9.64,5.907,2041.1,9,3,1.9,0,0.0,-1,0.0,0.0,0.0,0
2781954,1501038884492,,,,,,,,,0,2895,170,,,,,,,,,,,,,,,
2781964,1501038884502,3.13,,0.29,-0.04,0.74,-0,-1,8,0,2865,170,,,,,,,,,,,,,,,
2781974,1501038884512,,,,,,,,,0,2805,170,,,,,,,,,,,,,,,
2781984,1501038884522,,,,,,,,,0,2715,170,,,,,,,,,,,,,,,
2781994,1501038884532,,,,,,,,,0,2895,170,,,,,,,,,,,,,,,
2782004,1501038884542,3.17,,0.31,0.05,0.98,-0,1,4,0,2865,180,,,,,,,,,,,,,,,
2782014,1501038884552,,,,,,,,,0,2820,180,,,,,,,,,,,,,,,
2782024,1501038884562,,,,,,,,,0,2775,180,,,,,,,,,,,,,,,
2782034,1501038884572,,,,,,,,,0,2850,180,,,,,,,,,,,,,,,
2782044,1501038884582,3.15,4.49,0.33,-0.0,1.07,-2,1,1,0,2865,180,36.113663,-115.145691,10.14,5.907,2041.2,9,3,1.9,0,0.0,-1,0.0,0.0,0.0,0
2782054,1501038884592,,,,,,,,,0,2835,180,,,,,,,,,,,,,,,
2782064,1501038884602,,,,,,,,,0,2790,180,,,,,,,,,,,,,,,
2782074,1501038884612,,,,,,,,,0,2865,180,,,,,,,,,,,,,,,
2782084,1501038884622,3.2,,0.35,0.01,1.11,-3,-0,2,0,2895,180,,,,,,,,,,,,,,,
2782094,1501038884632,,,,,,,,,0,2850,180,,,,,,,,,,,,,,,
2782104,1501038884642,,,,,,,,,0,2790,180,,,,,,,,,,,,,,,
2782114,1501038884652,,,,,,,,,0,2880,180,,,,,,,,,,,,,,,
2782124,1501038884662,3.13,,0.3,-0.0,0.97,-2,-2,1,0,2880,180,,,,,,,,,,,,,,,
2782134,1501038884672,,,,,,,,,0,2880,180,,,,,,,,,,,,,,,
2782144,1501038884682,,,,,,,,,0,2820,180,36.113663,-115.145691,10.8,5.907,2041.1,9,3,1.9,0,0.0,-1,0.0,0.0,0.0,0
2782154,1501038884692,,,,,,,,,0,2745,180,,,,,,,,,,,,,,,
2782164,1501038884702,3.2,,0.29,0.01,0.76,-3,-7,4,0,2910,190,,,,,,,,,,,,,,,
2782174,1501038884712,,,,,,,,,0,2880,190,,,,,,,,,,,,,,,
2782184,1501038884722,,,,,,,,,0,2820,190,,,,,,,,,,,,,,,
2782194,1501038884732,,,,,,,,,0,2745,190,,,,,,,,,,,,,,,
2782204,1501038884742,3.09,,0.29,-0.07,0.62,-3,-9,5,0,2925,190,,,,,,,,,,,,,,,
2782214,1501038884752,,,,,,,,,0,2895,200,,,,,,,,,,,,,,,
2782224,1501038884762,,,,,,,,,0,2835,200,,,,,,,,,,,,,,,
2782234,1501038884772,,,,,,,,,0,2805,200,,,,,,,,,,,,,,,
2782244,1501038884782,3.16,,0.37,-0.13,0.54,-4,-13,4,0,2880,200,36.113663,-115.145706,10.74,5.908,2040.9,9,3,1.9,0,0.0,-1,0.0,0.0,0.0,0
2782254,1501038884792,,,,,,,,,0,2895,200,,,,,,,,,,,,,,,
2782264,1501038884802,,,,,,,,,0,2850,200,,,,,,,,,,,,,,,
2782274,1501038884812,,,,,,,,,0,2805,200,,,,,,,,,,,,,,,
2782284,1501038884822,3.16,,0.4,-0.06,0.63,-3,-12,6,0,2895,200,,,,,,,,,,,,,,,
2782294,1501038884832,,,,,,,,,0,2895,200,,,,,,,,,,,,,,,
2782304,1501038884842,,,,,,,,,0,2880,200,,,,,,,,,,,,,,,
2782314,1501038884852,,,,,,,,,0,2820,200,,,,,,,,,,,,,,,
2782324,1501038884862,3.13,,0.36,0.03,0.71,-2,-6,7,0,2880,200,,,,,,,,,,,,,,,
2782334,1501038884872,,,,,,,,,0,2910,200,,,,,,,,,,,,,,,
2782344,1501038884882,,,,,,,,,0,2895,200,36.113663,-115.145706,11.75,5.908,2040.9,9,3,1.9,0,0.0,-1,0.0,0.0,0.0,0
2782354,1501038884892,,,,,,,,,0,2835,210,,,,,,,,,,,,,,,
2782364,1501038884902,3.16,,0.33,0.04,0.82,-1,-2,5,0,2745,210,,,,,,,,,,,,,,,
2782374,1501038884912,,,,,,,,,0,2940,210,,,,,,,,,,,,,,,
2782384,1501038884922,,,,,,,,,0,2880,210,,,,,,,,,,,,,,,
2782394,1501038884932,,,,,,,,,0,2805,210,,,,,,,,,,,,,,,
2782404,1501038884942,3.15,,0.32,0.06,1.05,-1,3,3,0,2760,210,,,,,,,,,,,,,,,
2782414,1501038884952,,,,,,,,,0,2910,210,,,,,,,,,,,,,,,
2782424,1501038884962,,,,,,,,,0,2865,210,,,,,,,,,,,,,,,
2782434,1501038884972,,,,,,,,,0,2835,210,,,,,,,,,,,,,,,
2782444,1501038884982,3.08,,0.29,0.02,1.2,-1,6,1,0,2805,210,36.113663,-115.145714,12.33,5.908,2041.0,9,3,1.9,0,0.0,-1,0.0,0.0,0.0,0
2782454,1501038884992,,,,,,,,,0,2865,210,,,,,,,,,,,,,,,
2782464,1501038884996,,,,,,,,,0,2895,210,,,,,,,,,,,,,,,
2782474,1501038885006,,,,,,,,,0,2850,210,,,,,,,,,,,,,,,
2782484,1501038885016,3.12,,0.25,0.01,1.21,-3,4,2,0,2790,210,,,,,,,,,,,,,,,
2782494,1501038885026,,,,,,,,,0,2880,220,,,,,,,,,,,,,,,
2782504,1501038885036,,,,,,,,,0,2895,220,,,,,,,,,,,,,,,
2782514,1501038885046,,,,,,,,,0,2865,220,,,,,,,,,,,,,,,
2782524,1501038885056,3.19,,0.25,0.01,1.1,-4,2,2,0,2790,220,,,,,,,,,,,,,,,
2782534,1501038885066,,,,,,,,,0,2895,220,,,,,,,,,,,,,,,
2782544,1501038885076,,,,,,,,,0,2895,220,36.113663,-115.145714,12.89,5.909,2040.9,9,3,1.9,0,0.0,-1,0.0,0.0,0.0,0
2782554,1501038885086,,,,,,,,,0,2880,220,,,,,,,,,,,,,,,
2782564,1501038885098,3.17,,0.21,0.05,0.87,-2,-2,3,0,2835,220,,,,,,,,,,,,,,,
2782574,1501038885108,,,,,,,,,0,2745,220,,,,,,,,,,,,,,,
2782584,1501038885118,,,,,,,,,0,2940,220,,,,,,,,,,,,,,,
2782594,1501038885128,,,,,,,,,0,2895,220,,,,,,,,,,,,,,,
2782604,1501038885138,3.2,,0.24,0.01,0.57,-2,-6,3,0,2835,220,,,,,,,,,,,,,,,
2782614,1501038885148,,,,,,,,,0,2760,220,,,,,,,,,,,,,,,
2782624,1501038885158,,,,,,,,,0,2940,230,,,,,,,,,,,,,,,
2782634,1501038885168,,,,,,,,,0,2895,230,,,,,,,,,,,,,,,
2782644,1501038885178,3.13,,0.28,-0.04,0.43,-4,-11,4,0,2820,230,36.113663,-115.145729,13.16,5.909,2040.7,9,3,1.9,0,0.0,-1,0.0,0.0,0.0,0
2782654,1501038885192,,,,,,,,,0,2805,230,,,,,,,,,,,,,,,
2782664,1501038885202,,,,,,,,,0,2895,230,,,,,,,,,,,,,,,
2782674,1501038885212,,,,,,,,,0,2895,230,,,,,,,,,,,,,,,
2782684,1501038885222,3.2,,0.35,-0.05,0.43,-4,-13,8,0,2850,230,,,,,,,,,,,,,,,
2782694,1501038885232,,,,,,,,,0,2790,230,,,,,,,,,,,,,,,
2782704,1501038885242,,,,,,,,,0,2865,230,,,,,,,,,,,,,,,
2782714,1501038885252,,,,,,,,,0,2895,230,,,,,,,,,,,,,,,
2782724,1501038885262,3.17,,0.37,-0.06,0.56,-4,-11,8,0,2850,230,,,,,,,,,,,,,,,
2782734,1501038885272,,,,,,,,,0,2805,230,,,,,,,,,,,,,,,
2782744,1501038885282,,,,,,,,,0,2880,230,36.113663,-115.145729,13.91,5.909,2040.8,9,3,1.9,0,0.0,-1,0.0,0.0,0.0,0
2782754,1501038885292,,,,,,,,,0,2910,240,,,,,,,,,,,,,,,
2782764,1501038885296,3.18,,0.31,0.0,0.74,-2,-5,5,0,2880,240,,,,,,,,,,,,,,,
2782774,1501038885306,,,,,,,,,0,2805,240,,,,,,,,,,,,,,,
2782784,1501038885316,,,,,,,,,0,2745,240,,,,,,,,,,,,,,,
2782794,1501038885326,,,,,,,,,0,2910,240,,,,,,,,,,,,,,,
2782804,1501038885336,3.19,,0.28,0.02,0.98,-1,0,3,0,2880,240,,,,,,,,,,,,,,,
2782814,1501038885346,,,,,,,,,0,2820,240,,,,,,,,,,,,,,,
2782824,1501038885356,,,,,,,,,0,2745,240,,,,,,,,,,,,,,,
2782834,1501038885366,,,,,,,,,0,2925,240,,,,,,,,,,,,,,,
2782844,1501038885376,3.1,,0.17,0.01,1.17,-2,7,3,0,2880,240,36.113663,-115.145744,14.35,5.91,2040.8,9,3,1.9,0,0.0,-1,0.0,0.0,0.0,0
2782854,1501038885392,,,,,,,,,0,2865,240,,,,,,,,,,,,,,,
2782864,1501038885402,,,,,,,,,0,2805,240,,,,,,,,,,,,,,,
2782874,1501038885412,,,,,,,,,0,2880,250,,,,,,,,,,,,,,,
2782884,1501038885422,3.17,,0.18,-0.02,1.25,-3,8,4,0,2895,250,,,,,,,,,,,,,,,
2782894,1501038885432,,,,,,,,,0,2880,250,,,,,,,,,,,,,,,
2782904,1501038885442,,,,,,,,,0,2775,250,,,,,,,,,,,,,,,
2782914,1501038885452,,,,,,,,,0,2880,250,,,,,,,,,,,,,,,
2782924,1501038885462,3.19,,0.2,-0.02,1.23,-4,6,3,0,2880,250,,,,,,,,,,,,,,,
2782934,1501038885472,,,,,,,,,0,2850,250,,,,,,,,,,,,,,,
2782944,1501038885482,,,,,,,,,0,2775,250,36.113663,-115.145744,14.95,5.91,2040.9,9,3,1.9,0,0.0,-1,0.0,0.0,0.0,0
2782954,1501038885493,,,,,,,,,0,2730,240,,,,,,,,,,,,,,,
2782964,1501038885503,3.18,,0.19,-0.06,1.04,-4,1,3,0,2880,240,,,,,,,,,,,,,,,
2782974,1501038885513,,,,,,,,,0,2835,240,,,,,,,,,,,,,,,
2782984,1501038885523,,,,,,,,,0,2790,240,,,,,,,,,,,,,,,
2782994,1501038885533,,,,,,,,,0,2700,250,,,,,,,,,,,,,,,
2783004,1501038885543,3.19,,0.22,-0.02,0.73,-4,-4,5,0,2865,250,,,,,,,,,,,,,,,
2783014,1501038885553,,,,,,,,,0,2850,250,,,,,,,,,,,,,,,
2783024,1501038885563,,,,,,,,,0,2775,250,,,,,,,,,,,,,,,
2783034,1501038885573,,,,,,,,,0,2745,250,,,,,,,,,,,,,,,
2783044,1501038885583,3.14,4.49,0.3,-0.14,0.64,-4,-11,4,0,2850,250,36.113663,-115.145752,15.05,5.911,2041.1,9,3,1.9,0,0.0,-1,0.0,0.0,0.0,0
2783054,1501038885593,,,,,,,,,0,2865,250,,,,,,,,,,,,,,,
2783064,1501038885603,,,,,,,,,0,2820,250,,,,,,,,,,,,,,,
2783074,1501038885613,,,,,,,,,0,2775,260,,,,,,,,,,,,,,,
2783084,1501038885623,3.19,,0.34,-0.12,0.69,-3,-10,6,0,2850,260,,,,,,,,,,,,,,,
2783094,1501038885633,,,,,,,,,0,2865,260,,,,,,,,,,,,,,,
2783104,1501038885643,,,,,,,,,0,2805,260,,,,,,,,,,,,,,,
2783114,1501038885653,,,,,,,,,0,2790,260,,,,,,,,,,,,,,,
2783124,1501038885663,3.2,,0.27,-0.07,0.81,-3,-4,9,0,2700,260,,,,,,,,,,,,,,,
2783134,1501038885673,,,,,,,,,0,2865,260,,,,,,,,,,,,,,,
2783144,1501038885683,,,,,,,,,0,2835,260,36.113663,-115.145767,15.02,5.911,2041.3,9,3,1.9,0,0.0,-1,0.0,0.0,0.0,0
2783154,1501038885693,,,,,,,,,0,2760,260,,,,,,,,,,,,,,,
2783164,1501038885703,3.22,,0.23,-0.06,0.98,-1,0,7,0,2700,260,,,,,,,,,,,,,,,
2783174,1501038885713,,,,,,,,,0,2865,260,,,,,,,,,,,,,,,
2783184,1501038885723,,,,,,,,,0,2805,260,,,,,,,,,,,,,,,
2783194,1501038885733,,,,,,,,,0,2820,260,,,,,,,,,,,,,,,
2783204,1501038885743,3.21,,0.23,-0.02,1.12,-0,5,6,0,2745,260,,,,,,,,,,,,,,,
2783214,1501038885753,,,,,,,,,0,2805,260,,,,,,,,,,,,,,,
2783224,1501038885763,,,,,,,,,0,2835,270,,,,,,,,,,,,,,,
2783234,1501038885773,,,,,,,,,0,2790,270,,,,,,,,,,,,,,,
2783244,1501038885783,3.24,,0.26,-0.04,1.11,-2,2,4,0,2730,270,36.113663,-115.145767,15.65,5.911,2041.1,9,3,1.9,0,0.0,-1,0.0,0.0,0.0,0
2783254,1501038885793,,,,,,,,,0,2805,260,,,,,,,,,,,,,,,
2783264,1501038885803,,,,,,,,,0,2865,260,,,,,,,,,,,,,,,
2783274,1501038885813,,,,,,,,,0,2805,260,,,,,,,,,,,,,,,
2783284,1501038885823,3.21,,0.22,-0.03,0.89,-0,-2,3,0,2775,260,,,,,,,,,,,,,,,
2783294,1501038885833,,,,,,,,,0,2670,270,,,,,,,,,,,,,,,
2783304,1501038885843,,,,,,,,,0,2865,270,,,,,,,,,,,,,,,
2783314,1501038885853,,,,,,,,,0,2805,270,,,,,,,,,,,,,,,
2783324,1501038885863,3.16,,0.27,-0.07,0.73,-1,-8,3,0,2775,270,,,,,,,,,,,,,,,
2783334,1501038885873,,,,,,,,,0,2730,280,,,,,,,,,,,,,,,
2783344,1501038885883,,,,,,,,,0,2790,280,36.113663,-115.145782,15.97,5.912,2041.2,9,3,1.9,0,0.0,-1,0.0,0.0,0.0,0
2783354,1501038885893,,,,,,,,,0,2820,280,,,,,,,,,,,,,,,
2783364,1501038885903,3.26,,0.33,-0.12,0.68,-2,-9,7,0,2775,270,,,,,,,,,,,,,,,
2783374,1501038885913,,,,,,,,,0,2715,270,,,,,,,,,,,,,,,
2783384,1501038885923,,,,,,,,,0,2790,270,,,,,,,,,,,,,,,
2783394,1501038885933,,,,,,,,,0,2820,270,,,,,,,,,,,,,,,
2783404,1501038885943,3.23,,0.24,-0.07,0.81,-0,-5,6,0,2790,270,,,,,,,,,,,,,,,
2783414,1501038885953,,,,,,,,,0,2745,270,,,,,,,,,,,,,,,
2783424,1501038885963,,,,,,,,,0,2655,270,,,,,,,,,,,,,,,
2783434,1501038885973,,,,,,,,,0,2850,270,,,,,,,,,,,,,,,
2783444,1501038885983,3.16,,0.23,-0.0,1.03,-0,-1,3,0,2775,270,36.113663,-115.14579,16.68,5.912,2041.2,9,3,1.9,0,0.0,-1,0.0,0.0,0.0,0
2783454,1501038885993,,,,,,,,,0,2730,270,,,,,,,,,,,,,,,
2783464,1501038885997,,,,,,,,,0,2730,270,,,,,,,,,,,,,,,
2783474,1501038886007,,,,,,,,,0,2805,280,,,,,,,,,,,,,,,
2783484,1501038886017,3.23,,0.17,0.01,1.15,-1,3,2,0,2835,280,,,,,,,,,,,,,,,
2783494,1501038886027,,,,,,,,,0,2805,280,,,,,,,,,,,,,,,
2783504,1501038886037,,,,,,,,,0,2730,280,,,,,,,,,,,,,,,
2783514,1501038886047,,,,,,,,,0,2805,280,,,,,,,,,,,,,,,
2783524,1501038886057,3.19,,0.19,0.01,0.98,-1,1,2,0,2835,280,,,,,,,,,,,,,,,
2783534,1501038886067,,,,,,,,,0,2805,280,,,,,,,,,,,,,,,
2783544,1501038886077,,,,,,,,,0,2760,290,36.113663,-115.14579,17.23,5.913,2041.2,9,3,1.9,0,0.0,-1,0.0,0.0,0.0,0
2783554,1501038886093,,,,,,,,,0,2685,290,,,,,,,,,,,,,,,
2783564,1501038886103,3.19,,0.18,-0.06,0.69,-1,-4,3,0,2865,290,,,,,,,,,,,,,,,
2783574,1501038886113,,,,,,,,,0,2790,280,,,,,,,,,,,,,,,
2783584,1501038886123,,,,,,,,,0,2760,280,,,,,,,,,,,,,,,
2783594,1501038886133,,,,,,,,,0,2670,280,,,,,,,,,,,,,,,
2783604,1501038886143,3.14,,0.24,-0.09,0.59,-2,-9,6,0,2820,280,,,,,,,,,,,,,,,
2783614,1501038886153,,,,,,,,,0,2850,280,,,,,,,,,,,,,,,
2783624,1501038886163,,,,,,,,,0,2775,280,,,,,,,,,,,,,,,
2783634,1501038886173,,,,,,,,,0,2730,280,,,,,,,,,,,,,,,
2783644,1501038886183,3.2,,0.27,-0.07,0.61,-2,-10,7,0,2805,280,36.113663,-115.145805,17.51,5.913,2041.1,9,3,1.9,0,0.0,-1,0.0,0.0,0.0,0
2783654,1501038886195,,,,,,,,,0,2835,280,,,,,,,,,,,,,,,
2783664,1501038886205,,,,,,,,,0,2775,280,,,,,,,,,,,,,,,
2783674,1501038886215,,,,,,,,,0,2745,280,,,,,,,,,,,,,,,
2783684,1501038886225,3.23,,0.19,-0.04,0.7,-2,-4,6,0,2655,280,,,,,,,,,,,,,,,
2783694,1501038886235,,,,,,,,,0,2865,280,,,,,,,,,,,,,,,
2783704,1501038886245,,,,,,,,,0,2805,280,,,,,,,,,,,,,,,
2783714,1501038886255,,,,,,,,,0,2760,300,,,,,,,,,,,,,,,
2783724,1501038886265,3.22,,0.16,-0.03,0.9,-1,0,3,0,2670,300,,,,,,,,,,,,,,,
2783734,1501038886275,,,,,,,,,0,2850,300,,,,,,,,,,,,,,,
2783744,1501038886285,,,,,,,,,0,2820,290,36.113663,-115.145821,18.04,5.914,2041.0,9,3,1.9,0,0.0,-1,0.0,0.0,0.0,0
2783754,1501038886293,,,,,,,,,0,2805,290,,,,,,,,,,,,,,,
2783764,1501038886303,3.24,,0.14,0.0,1.03,-1,5,4,0,2730,290,,,,,,,,,,,,,,,
2783774,1501038886313,,,,,,,,,0,2835,290,,,,,,,,,,,,,,,
2783784,1501038886323,,,,,,,,,0,2850,290,,,,,,,,,,,,,,,
2783794,1501038886333,,,,,,,,,0,2790,290,,,,,,,,,,,,,,,
2783804,1501038886343,3.22,,0.16,0.04,1.06,-2,4,3,0,2745,290,,,,,,,,,,,,,,,
2783814,1501038886353,,,,,,,,,0,2835,290,,,,,,,,,,,,,,,
2783824,1501038886363,,,,,,,,,0,2850,290,,,,,,,,,,,,,,,
2783834,1501038886373,,,,,,,,,0,2805,290,,,,,,,,,,,,,,,
2783844,1501038886383,3.19,,0.13,-0.02,0.9,-1,-1,4,0,2775,290,36.113663,-115.145821,18.4,5.914,2041.0,9,3,1.9,0,0.0,-1,0.0,0.0,0.0,0
2783854,1501038886395,,,,,,,,,0,2685,300,,,,,,,,,,,,,,,
2783864,1501038886405,,,,,,,,,0,2865,300,,,,,,,,,,,,,,,
2783874,1501038886415,,,,,,,,,0,2805,300,,,,,,,,,,,,,,,
2783884,1501038886425,3.23,,0.24,-0.12,0.75,-1,-9,3,0,2775,300,,,,,,,,,,,,,,,
2783894,1501038886435,,,,,,,,,0,2760,300,,,,,,,,,,,,,,,
2783904,1501038886445,,,,,,,,,0,2835,300,,,,,,,,,,,,,,,
2783914,1501038886455,,,,,,,,,0,2850,300,,,,,,,,,,,,,,,
2783924,1501038886465,3.24,,0.3,-0.1,0.72,-3,-11,8,0,2805,300,,,,,,,,,,,,,,,
2783934,1501038886475,,,,,,,,,0,2760,300,,,,,,,,,,,,,,,
2783944,1501038886485,,,,,,,,,0,2850,300,36.113663,-115.145828,18.64,5.915,2041.0,9,3,1.9,0,0.0,-1,0.0,0.0,0.0,0
2783954,1501038886494,,,,,,,,,0,2865,300,,,,,,,,,,,,,,,
2783964,1501038886504,3.18,,0.28,-0.04,0.79,-1,-8,8,0,2835,300,,,,,,,,,,,,,,,
2783974,1501038886514,,,,,,,,,0,2760,300,,,,,,,,,,,,,,,
2783984,1501038886524,,,,,,,,,0,2685,300,,,,,,,,,,,,,,,
2783994,1501038886534,,,,,,,,,0,2865,300,,,,,,,,,,,,,,,
2784004,1501038886544,3.1,,0.22,0.01,0.97,0,-3,5,0,2820,300,,,,,,,,,,,,,,,
2784014,1501038886554,,,,,,,,,0,2775,300,,,,,,,,,,,,,,,
2784024,1501038886564,,,,,,,,,0,2685,300,,,,,,,,,,,,,,,
2784034,1501038886574,,,,,,,,,0,2880,300,,,,,,,,,,,,,,,
2784044,1501038886584,3.13,4.49,0.17,0.06,1.16,-2,-1,2,0,2820,300,36.113663,-115.145844,19.0,5.915,2041.1,9,3,1.9,0,0.0,-1,0.0,0.0,0.0,0
2784054,1501038886594,,,,,,,,,0,2790,300,,,,,,,,,,,,,,,
2784064,1501038886604,,,,,,,,,0,2745,300,,,,,,,,,,,,,,,
2784074,1501038886614,,,,,,,,,0,2820,300,,,,,,,,,,,,,,,
2784084,1501038886624,3.23,,0.22,0.02,1.16,-2,-1,3,0,2850,300,,,,,,,,,,,,,,,
2784094,1501038886634,,,,,,,,,0,2805,300,,,,,,,,,,,,,,,
2784104,1501038886644,,,,,,,,,0,2760,300,,,,,,,,,,,,,,,
2784114,1501038886654,,,,,,,,,0,2865,310,,,,,,,,,,,,,,,
2784124,1501038886664,3.18,,0.2,0.08,0.99,-1,-3,1,0,2865,310,,,,,,,,,,,,,,,
2784134,1501038886674,,,,,,,,,0,2835,310,,,,,,,,,,,,,,,
2784144,1501038886684,,,,,,,,,0,2790,320,36.113663,-115.145859,19.18,5.916,2041.1,9,3,1.9,0,0.0,-1,0.0,0.0,0.0,0
2784154,1501038886694,,,,,,,,,0,2700,320,,,,,,,,,,,,,,,
2784164,1501038886704,3.18,,0.2,0.02,0.86,-2,-8,3,0,2880,320,,,,,,,,,,,,,,,
2784174,1501038886714,,,,,,,,,0,2820,310,,,,,,,,,,,,,,,
2784184,1501038886724,,,,,,,,,0,2790,310,,,,,,,,,,,,,,,
2784194,1501038886734,,,,,,,,,0,2685,310,,,,,,,,,,,,,,,
2784204,1501038886744,3.14,,0.28,-0.0,0.66,-2,-11,3,0,2880,310,,,,,,,,,,,,,,,
2784214,1501038886754,,,,,,,,,0,2850,310,,,,,,,,,,,,,,,
2784224,1501038886764,,,,,,,,,0,2805,310,,,,,,,,,,,,,,,
2784234,1501038886774,,,,,,,,,0,2745,310,,,,,,,,,,,,,,,
2784244,1501038886784,3.19,,0.31,-0.02,0.59,-2,-12,4,0,2835,310,36.113663,-115.145859,19.39,5.916,2041.0,9,3,1.9,0,0.0,-1,0.0,0.0,0.0,0
2784254,1501038886794,,,,,,,,,0,2850,310,,,,,,,,,,,,,,,
2784264,1501038886804,,,,,,,,,0,2805,320,,,,,,,,,,,,,,,
2784274,1501038886814,,,,,,,,,0,2745,320,,,,,,,,,,,,,,,
2784284,1501038886824,3.2,,0.26,0.04,0.6,-2,-9,5,0,2835,320,,,,,,,,,,,,,,,
2784294,1501038886834,,,,,,,,,0,2895,320,,,,,,,,,,,,,,,
2784304,1501038886844,,,,,,,,,0,2835,320,,,,,,,,,,,,,,,
2784314,1501038886854,,,,,,,,,0,2775,320,,,,,,,,,,,,,,,
2784324,1501038886864,3.17,,0.14,0.1,0.86,-1,-4,6,0,2700,320,,,,,,,,,,,,,,,
2784334,1501038886874,,,,,,,,,0,2865,320,,,,,,,,,,,,,,,
2784344,1501038886884,,,,,,,,,0,2835,320,36.113663,-115.145866,19.71,5.917,2040.9,9,3,1.9,0,0.0,-1,0.0,0.0,0.0,0
2784354,1501038886894,,,,,,,,,0,2790,320,,,,,,,,,,,,,,,
2784364,1501038886904,3.15,,0.09,0.08,1.08,-0,1,3,0,2700,320,,,,,,,,,,,,,,,
2784374,1501038886914,,,,,,,,,0,2850,320,,,,,,,,,,,,,,,
2784384,1501038886924,,,,,,,,,0,2865,320,,,,,,,,,,,,,,,
2784394,1501038886934,,,,,,,,,0,2820,320,,,,,,,,,,,,,,,
2784404,1501038886944,3.13,,0.09,0.05,1.16,-2,3,5,0,2760,320,,,,,,,,,,,,,,,
2784414,1501038886954,,,,,,,,,0,2850,320,,,,,,,,,,,,,,,
2784424,1501038886964,,,,,,,,,0,2865,320,,,,,,,,,,,,,,,
2784434,1501038886974,,,,,,,,,0,2820,320,,,,,,,,,,,,,,,
2784444,1501038886984,3.14,,0.09,0.04,1.03,-3,1,5,0,2760,320,36.113663,-115.145882,19.99,5.917,2040.8,9,3,1.9,0,0.0,-1,0.0,0.0,0.0,0
2784454,1501038886994,,,,,,,,,0,2700,320,,,,,,,,,,,,,,,
2784464,1501038886996,,,,,,,,,0,2895,320,,,,,,,,,,,,,,,
2784474,1501038887006,,,,,,,,,0,2850,320,,,,,,,,,,,,,,,
2784484,1501038887016,3.22,,0.05,0.02,0.87,-2,-6,5,0,2805,330,,,,,,,,,,,,,,,
2784494,1501038887026,,,,,,,,,0,2715,330,,,,,,,,,,,,,,,
2784504,1501038887036,,,,,,,,,0,2895,330,,,,,,,,,,,,,,,
2784514,1501038887046,,,,,,,,,0,2850,330,,,,,,,,,,,,,,,
2784524,1501038887056,3.26,,0.13,-0.05,0.62,-3,-10,5,0,2805,330,,,,,,,,,,,,,,,
2784534,1501038887066,,,,,,,,,0,2730,330,,,,,,,,,,,,,,,
2784544,1501038887076,,,,,,,,,0,2880,320,36.113663,-115.145897,19.85,5.918,2041.0,9,3,1.9,0,0.0,-1,0.0,0.0,0.0,0
2784554,1501038887092,,,,,,,,,0,2895,320,,,,,,,,,,,,,,,
2784564,1501038887102,3.24,,0.22,-0.08,0.51,-4,-14,5,0,2835,320,,,,,,,,,,,,,,,
2784574,1501038887112,,,,,,,,,0,2790,320,,,,,,,,,,,,,,,
2784584,1501038887122,,,,,,,,,0,2880,320,,,,,,,,,,,,,,,
2784594,1501038887132,,,,,,,,,0,2895,320,,,,,,,,,,,,,,,
2784604,1501038887142,3.21,,0.24,-0.02,0.48,-2,-14,6,0,2850,330,,,,,,,,,,,,,,,
2784614,1501038887152,,,,,,,,,0,2790,330,,,,,,,,,,,,,,,
2784624,1501038887162,,,,,,,,,0,2865,330,,,,,,,,,,,,,,,
2784634,1501038887172,,,,,,,,,0,2910,330,,,,,,,,,,,,,,,
2784644,1501038887182,3.2,,0.22,0.03,0.61,-1,-7,5,0,2865,330,36.113663,-115.145912,20.63,5.919,2041.0,9,3,1.9,0,0.0,-1,0.0,0.0,0.0,0
2784654,1501038887194,,,,,,,,,0,2835,330,,,,,,,,,,,,,,,
2784664,1501038887204,,,,,,,,,0,2745,330,,,,,,,,,,,,,,,
2784674,1501038887214,,,,,,,,,0,2940,330,,,,,,,,,,,,,,,
2784684,1501038887224,3.15,,0.14,0.04,0.86,0,-3,1,0,2895,330,,,,,,,,,,,,,,,
2784694,1501038887234,,,,,,,,,0,2835,340,,,,,,,,,,,,,,,
2784704,1501038887244,,,,,,,,,0,2775,340,,,,,,,,,,,,,,,
2784714,1501038887254,,,,,,,,,0,2925,340,,,,,,,,,,,,,,,
2784724,1501038887264,3.17,,0.05,0.08,1.08,1,4,-0,0,2895,330,,,,,,,,,,,,,,,
2784734,1501038887274,,,,,,,,,0,2850,330,,,,,,,,,,,,,,,
2784744,1501038887284,,,,,,,,,0,2775,330,36.113663,-115.145912,20.77,5.919,2041.0,9,3,1.9,0,0.0,-1,0.0,0.0,0.0,0
2784754,1501038887294,,,,,,,,,0,2925,330,,,,,,,,,,,,,,,
2784764,1501038887304,3.19,,0.01,0.01,1.2,-1,8,2,0,2940,330,,,,,,,,,,,,,,,
2784774,1501038887314,,,,,,,,,0,2910,330,,,,,,,,,,,,,,,
2784784,1501038887324,,,,,,,,,0,2820,330,,,,,,,,,,,,,,,
2784794,1501038887334,,,,,,,,,0,2910,330,,,,,,,,,,,,,,,
2784804,1501038887344,3.2,,0.04,-0.03,1.23,-2,8,2,0,2940,330,,,,,,,,,,,,,,,
2784814,1501038887354,,,,,,,,,0,2895,330,,,,,,,,,,,,,,,
2784824,1501038887364,,,,,,,,,0,2835,330,,,,,,,,,,,,,,,
2784834,1501038887374,,,,,,,,,0,2925,330,,,,,,,,,,,,,,,
2784844,1501038887384,3.21,,0.06,-0.05,1.13,-2,4,1,0,2940,330,36.113663,-115.14592,21.08,5.92,2041.1,9,3,1.9,0,0.0,-1,0.0,0.0,0.0,0
2784854,1501038887394,,,,,,,,,0,2925,330,,,,,,,,,,,,,,,
2784864,1501038887404,,,,,,,,,0,2850,330,,,,,,,,,,,,,,,
2784874,1501038887414,,,,,,,,,0,2940,340,,,,,,,,,,,,,,,
2784884,1501038887424,3.2,,0.06,-0.08,0.93,-2,0,1,0,2955,340,,,,,,,,,,,,,,,
2784894,1501038887434,,,,,,,,,0,2895,340,,,,,,,,,,,,,,,
2784904,1501038887444,,,,,,,,,0,2850,330,,,,,,,,,,,,,,,
2784914,1501038887454,,,,,,,,,0,2760,330,,,,,,,,,,,,,,,
2784924,1501038887464,3.18,,0.07,-0.06,0.73,-0,-4,-0,0,2955,330,,,,,,,,,,,,,,,
2784934,1501038887474,,,,,,,,,0,2880,330,,,,,,,,,,,,,,,
2784944,1501038887484,,,,,,,,,0,2820,330,36.113663,-115.145935,21.23,5.92,2041.1,9,3,1.9,0,0.0,-1,0.0,0.0,0.0,0
2784954,1501038887493,,,,,,,,,0,2745,330,,,,,,,,,,,,,,,
2784964,1501038887503,3.14,,0.08,-0.07,0.59,-1,-4,1,0,2700,320,,,,,,,,,,,,,,,
2784974,1501038887513,,,,,,,,,0,2670,320,,,,,,,,,,,,,,,
2784984,1501038887523,,,,,,,,,0,2640,320,,,,,,,,,,,,,,,
2784994,1501038887533,,,,,,,,,0,2565,300,,,,,,,,,,,,,,,
2785004,1501038887543,3.14,,-0.03,-0.06,0.59,-1,-5,-1,0,2535,300,,,,,,,,,,,,,,,
2785014,1501038887553,,,,,,,,,0,2505,300,,,,,,,,,,,,,,,
2785024,1501038887563,,,,,,,,,0,2445,300,,,,,,,,,,,,,,,
2785034,1501038887573,,,,,,,,,0,2430,280,,,,,,,,,,,,,,,
2785044,1501038887583,3.2,4.49,-0.15,-0.04,0.8,-1,0,2,0,2400,280,36.113663,-115.14595,21.41,5.921,2041.2,9,3,1.9,0,0.0,-1,0.0,0.0,0.0,0
2785054,1501038887593,,,,,,,,,0,2400,280,,,,,,,,,,,,,,,
2785064,1501038887593,,,,,,,,,0,2370,290,,,,,,,,,,,,,,,
2785074,1501038887603,,,,,,,,,0,2355,290,,,,,,,,,,,,,,,
2785084,1501038887613,3.18,,-0.2,-0.03,0.81,-2,5,3,0,2340,290,,,,,,,,,,,,,,,
2785094,1501038887623,,,,,,,,,0,2340,290,,,,,,,,,,,,,,,
2785104,1501038887633,,,,,,,,,0,2310,270,,,,,,,,,,,,,,,
2785114,1501038887643,,,,,,,,,0,2310,270,,,,,,,,,,,,,,,
2785124,1501038887653,3.16,,-0.28,-0.03,0.85,-3,5,3,0,2310,270,,,,,,,,,,,,,,,
2785134,1501038887663,,,,,,,,,0,2295,270,,,,,,,,,,,,,,,
2785144,1501038887673,,,,,,,,,0,2295,270,36.113663,-115.145958,21.45,5.922,2041.2,9,3,1.9,0,0.0,-1,0.0,0.0,0.0,0
2785154,1501038887693,,,,,,,,,0,2280,270,,,,,,,,,,,,,,,
2785164,1501038887703,3.22,,-0.34,-0.03,0.93,-3,7,4,0,2265,270,,,,,,,,,,,,,,,
2785174,1501038887713,,,,,,,,,0,2265,270,,,,,,,,,,,,,,,
2785184,1501038887723,,,,,,,,,0,2250,270,,,,,,,,,,,,,,,
2785194,1501038887733,,,,,,,,,0,2250,270,,,,,,,,,,,,,,,
2785204,1501038887743,3.2,,-0.41,-0.02,1.01,-2,5,3,0,2235,270,,,,,,,,,,,,,,,
2785214,1501038887753,,,,,,,,,0,2250,260,,,,,,,,,,,,,,,
2785224,1501038887763,,,,,,,,,0,2250,260,,,,,,,,,,,,,,,
2785234,1501038887773,,,,,,,,,0,2220,260,,,,,,,,,,,,,,,
2785244,1501038887783,3.2,,-0.42,0.01,1.02,-1,3,4,0,2220,260,36.113663,-115.145973,20.51,5.922,2041.2,9,3,1.9,0,0.0,-1,0.0,0.0,0.0,0
2785254,1501038887791,,,,,,,,,0,2220,260,,,,,,,,,,,,,,,
2785264,1501038887801,,,,,,,,,0,2220,260,,,,,,,,,,,,,,,
2785274,1501038887811,,,,,,,,,0,2220,260,,,,,,,,,,,,,,,
2785284,1501038887821,3.19,,-0.48,-0.01,1.03,-1,0,4,0,2175,260,,,,,,,,,,,,,,,
2785294,1501038887831,,,,,,,,,0,2190,260,,,,,,,,,,,,,,,
2785304,1501038887841,,,,,,,,,0,2175,260,,,,,,,,,,,,,,,
2785314,1501038887851,,,,,,,,,0,2145,260,,,,,,,,,,,,,,,
2785324,1501038887861,3.21,,-0.44,-0.0,1.03,-1,-3,5,0,2160,250,,,,,,,,,,,,,,,
2785334,1501038887871,,,,,,,,,0,2145,250,,,,,,,,,,,,,,,
2785344,1501038887881,,,,,,,,,0,2115,250,36.113663,-115.145973,19.77,5.923,2041.2,9,3,1.9,0,0.0,-1,0.0,0.0,0.0,0
2785354,1501038887893,,,,,,,,,0,2100,250,,,,,,,,,,,,,,,
2785364,1501038887903,3.21,,-0.49,-0.02,1.01,-0,-5,4,0,2085,240,,,,,,,,,,,,,,,
2785374,1501038887913,,,,,,,,,0,2085,240,,,,,,,,,,,,,,,
2785384,1501038887923,,,,,,,,,0,2085,240,,,,,,,,,,,,,,,
2785394,1501038887933,,,,,,,,,0,2070,240,,,,,,,,,,,,,,,
2785404,1501038887943,3.21,,-0.49,-0.03,0.98,-0,-5,4,0,2055,240,,,,,,,,,,,,,,,
2785414,1501038887953,,,,,,,,,0,2025,240,,,,,,,,,,,,,,,
2785424,1501038887963,,,,,,,,,0,2025,240,,,,,,,,,,,,,,,
2785434,1501038887973,,,,,,,,,0,2010,240,,,,,,,,,,,,,,,
2785444,1501038887983,3.19,,-0.5,-0.06,1.02,-0,-4,5,0,2025,240,36.113663,-115.145988,18.94,5.923,2041.3,9,3,1.9,0,0.0,-1,0.0,0.0,0.0,0
2785454,1501038887993,,,,,,,,,0,2010,240,,,,,,,,,,,,,,,
2785464,1501038887995,,,,,,,,,0,1995,240,,,,,,,,,,,,,,,
2785474,1501038888005,,,,,,,,,0,1980,240,,,,,,,,,,,,,,,
2785484,1501038888015,3.19,,-0.51,-0.02,1.04,0,-5,5,0,1965,240,,,,,,,,,,,,,,,
2785494,1501038888025,,,,,,,,,0,1950,230,,,,,,,,,,,,,,,
2785504,1501038888035,,,,,,,,,0,1950,230,,,,,,,,,,,,,,,
2785514,1501038888045,,,,,,,,,0,1935,230,,,,,,,,,,,,,,,
2785524,1501038888055,3.2,,-0.49,-0.03,1.05,-0,-6,6,0,1905,230,,,,,,,,,,,,,,,
2785534,1501038888065,,,,,,,,,0,1890,230,,,,,,,,,,,,,,,
2785544,1501038888075,,,,,,,,,0,1890,230,36.113663,-115.145996,17.82,5.924,2041.2,9,3,1.9,0,0.0,-1,0.0,0.0,0.0,0
2785554,1501038888091,,,,,,,,,0,1875,230,,,,,,,,,,,,,,,
2785564,1501038888101,3.25,,-0.5,-0.01,1.02,-0,-4,6,0,1875,230,,,,,,,,,,,,,,,
2785574,1501038888111,,,,,,,,,0,1875,230,,,,,,,,,,,,,,,
2785584,1501038888121,,,,,,,,,0,1830,210,,,,,,,,,,,,,,,
2785594,1501038888131,,,,,,,,,0,1830,210,,,,,,,,,,,,,,,
2785604,1501038888141,3.23,,-0.48,-0.04,1.02,-0,-5,5,0,1800,210,,,,,,,,,,,,,,,
2785614,1501038888151,,,,,,,,,0,1800,210,,,,,,,,,,,,,,,
2785624,1501038888161,,,,,,,,,0,1800,210,,,,,,,,,,,,,,,
2785634,1501038888171,,,,,,,,,0,1785,200,,,,,,,,,,,,,,,
2785644,1501038888181,3.22,,-0.49,-0.03,1.03,-1,-5,5,0,1770,200,36.113663,-115.145996,16.69,5.924,2041.3,9,3,1.9,0,0.0,-1,0.0,0.0,0.0,0
2785654,1501038888193,,,,,,,,,0,1755,200,,,,,,,,,,,,,,,
2785664,1501038888203,,,,,,,,,0,1740,200,,,,,,,,,,,,,,,
2785674,1501038888213,,,,,,,,,0,1725,200,,,,,,,,,,,,,,,
2785684,1501038888223,3.23,,-0.5,-0.04,1.06,-0,-4,5,0,1725,200,,,,,,,,,,,,,,,
2785694,1501038888233,,,,,,,,,0,1725,200,,,,,,,,,,,,,,,
2785704,1501038888243,,,,,,,,,0,1710,200,,,,,,,,,,,,,,,
2785714,1501038888253,,,,,,,,,0,1710,200,,,,,,,,,,,,,,,
2785724,1501038888263,3.25,,-0.48,-0.04,1.06,0,-4,4,0,1680,190,,,,,,,,,,,,,,,
2785734,1501038888273,,,,,,,,,0,1695,190,,,,,,,,,,,,,,,
2785744,1501038888283,,,,,,,,,0,1650,190,36.113663,-115.146011,15.68,5.925,2041.3,9,3,2.0,0,0.0,-1,0.0,0.0,0.0,0
2785754,1501038888293,,,,,,,,,0,1665,190,,,,,,,,,,,,,,,
2785764,1501038888303,3.22,,-0.49,-0.03,1.06,-0,-5,5,0,1650,190,,,,,,,,,,,,,,,
2785774,1501038888313,,,,,,,,,0,1665,190,,,,,,,,,,,,,,,
2785784,1501038888323,,,,,,,,,0,1635,190,,,,,,,,,,,,,,,
2785794,1501038888333,,,,,,,,,0,1620,190,,,,,,,,,,,,,,,
2785804,1501038888343,3.22,,-0.47,-0.02,1.05,-0,-4,4,0,1620,190,,,,,,,,,,,,,,,
2785814,1501038888353,,,,,,,,,0,1590,190,,,,,,,,,,,,,,,
2785824,1501038888363,,,,,,,,,0,1590,190,,,,,,,,,,,,,,,
2785834,1501038888373,,,,,,,,,0,1575,180,,,,,,,,,,,,,,,
2785844,1501038888383,3.22,,-0.48,-0.06,1.12,-0,-4,5,0,1590,180,36.113663,-115.146027,14.81,5.925,2041.3,9,3,2.0,0,0.0,-1,0.0,0.0,0.0,0
2785854,1501038888393,,,,,,,,,0,1590,180,,,,,,,,,,,,,,,
2785864,1501038888403,,,,,,,,,0,1575,180,,,,,,,,,,,,,,,
2785874,1501038888413,,,,,,,,,0,1545,180,,,,,,,,,,,,,,,
2785884,1501038888423,3.19,,-0.49,-0.02,1.11,-0,-4,6,0,1545,180,,,,,,,,,,,,,,,
2785894,1501038888433,,,,,,,,,0,1515,170,,,,,,,,,,,,,,,
2785904,1501038888443,,,,,,,,,0,1500,170,,,,,,,,,,,,,,,
2785914,1501038888453,,,,,,,,,0,1500,170,,,,,,,,,,,,,,,
2785924,1501038888463,3.23,,-0.49,-0.04,1.12,-0,-2,6,0,1530,170,,,,,,,,,,,,,,,
2785934,1501038888473,,,,,,,,,0,1530,170,,,,,,,,,,,,,,,
2785944,1501038888483,,,,,,,,,0,1515,170,36.113663,-115.146027,13.72,5.925,2041.4,9,3,1.9,0,0.0,-1,0.0,0.0,0.0,0
2785954,1501038888492,,,,,,,,,0,1500,160,,,,,,,,,,,,,,,
2785964,1501038888502,3.23,,-0.46,-0.09,1.13,0,-4,5,0,1485,160,,,,,,,,,,,,,,,
2785974,1501038888512,,,,,,,,,0,1455,160,,,,,,,,,,,,,,,
2785984,1501038888522,,,,,,,,,0,1455,160,,,,,,,,,,,,,,,
2785994,1501038888532,,,,,,,,,0,1440,160,,,,,,,,,,,,,,,
2786004,1501038888542,3.2,,-0.48,-0.1,1.12,0,-3,5,0,1470,160,,,,,,,,,,,,,,,
2786014,1501038888552,,,,,,,,,0,1500,160,,,,,,,,,,,,,,,
2786024,1501038888562,,,,,,,,,0,1470,160,,,,,,,,,,,,,,,
2786034,1501038888572,,,,,,,,,0,1455,160,,,,,,,,,,,,,,,
2786044,1501038888582,3.23,4.51,-0.5,-0.11,1.14,0,-2,5,0,1440,160,36.113659,-115.146034,12.75,5.926,2041.4,9,3,1.9,0,0.0,-1,0.0,0.0,0.0,0
2786054,1501038888592,,,,,,,,,0,1410,160,,,,,,,,,,,,,,,
2786064,1501038888602,,,,,,,,,0,1410,160,,,,,,,,,,,,,,,
2786074,1501038888612,,,,,,,,,0,1380,150,,,,,,,,,,,,,,,
2786084,1501038888622,3.23,,-0.51,-0.09,1.1,0,-1,5,0,1425,150,,,,,,,,,,,,,,,
2786094,1501038888632,,,,,,,,,0,1440,150,,,,,,,,,,,,,,,
2786104,1501038888642,,,,,,,,,0,1440,150,,,,,,,,,,,,,,,
2786114,1501038888652,,,,,,,,,0,1410,150,,,,,,,,,,,,,,,
2786124,1501038888662,3.22,,-0.5,-0.05,1.13,-0,-1,6,0,1410,150,,,,,,,,,,,,,,,
2786134,1501038888672,,,,,,,,,0,1395,150,,,,,,,,,,,,,,,
2786144,1501038888682,,,,,,,,,0,1365,140,36.113659,-115.146034,11.67,5.926,2041.5,9,3,1.9,0,0.0,-1,0.0,0.0,0.0,0
2786154,1501038888692,,,,,,,,,0,1350,140,,,,,,,,,,,,,,,
2786164,1501038888702,3.23,,-0.5,-0.06,1.07,-0,-2,5,0,1320,140,,,,,,,,,,,,,,,
2786174,1501038888712,,,,,,,,,0,1395,140,,,,,,,,,,,,,,,
2786184,1501038888722,,,,,,,,,0,1410,140,,,,,,,,,,,,,,,
2786194,1501038888732,,,,,,,,,0,1395,140,,,,,,,,,,,,,,,
2786204,1501038888742,3.19,,-0.45,-0.09,1.08,-0,-4,5,0,1365,140,,,,,,,,,,,,,,,
2786214,1501038888752,,,,,,,,,0,1350,140,,,,,,,,,,,,,,,
2786224,1501038888762,,,,,,,,,0,1305,130,,,,,,,,,,,,,,,
2786234,1501038888772,,,,,,,,,0,1305,130,,,,,,,,,,,,,,,
2786244,1501038888782,3.23,,-0.47,-0.07,1.1,-0,-5,4,0,1305,130,36.113659,-115.146034,10.66,5.926,2041.4,9,3,1.9,0,0.0,-1,0.0,0.0,0.0,0
2786254,1501038888792,,,,,,,,,0,1260,130,,,,,,,,,,,,,,,
2786264,1501038888802,,,,,,,,,0,1365,130,,,,,,,,,,,,,,,
2786274,1501038888812,,,,,,,,,0,1395,130,,,,,,,,,,,,,,,
2786284,1501038888822,3.2,,-0.47,-0.02,1.16,-0,-3,4,0,1365,130,,,,,,,,,,,,,,,
2786294,1501038888832,,,,,,,,,0,1335,130,,,,,,,,,,,,,,,
2786304,1501038888842,,,,,,,,,0,1320,120,,,,,,,,,,,,,,,
2786314,1501038888852,,,,,,,,,0,1290,120,,,,,,,,,,,,,,,
2786324,1501038888862,3.22,,-0.47,-0.02,1.13,0,-3,4,0,1290,120,,,,,,,,,,,,,,,
2786334,1501038888872,,,,,,,,,0,1260,120,,,,,,,,,,,,,,,
2786344,1501038888882,,,,,,,,,0,1215,120,36.113659,-115.14605,9.64,5.927,2041.4,9,3,1.9,0,0.0,-1,0.0,0.0,0.0,0
2786354,1501038888892,,,,,,,,,0,1350,120,,,,,,,,,,,,,,,
2786364,1501038888902,3.27,,-0.47,-0.0,1.02,1,-5,3,0,1410,120,,,,,,,,,,,,,,,
2786374,1501038888912,,,,,,,,,0,1395,120,,,,,,,,,,,,,,,
2786384,1501038888922,,,,,,,,,0,1365,120,,,,,,,,,,,,,,,
2786394,1501038888932,,,,,,,,,0,1350,2970,,,,,,,,,,,,,,,
2786404,1501038888942,3.18,,-0.45,-0.01,0.96,1,-5,3,0,1320,2970,,,,,,,,,,,,,,,
2786414,1501038888952,,,,,,,,,0,1320,2970,,,,,,,,,,,,,,,
2786424,1501038888962,,,,,,,,,0,1305,2970,,,,,,,,,,,,,,,
2786434,1501038888972,,,,,,,,,0,1215,2970,,,,,,,,,,,,,,,
2786444,1501038888982,3.24,,-0.43,-0.03,1.11,1,-7,4,0,1425,2970,36.113659,-115.14605,8.65,5.927,2041.3,9,3,1.9,0,0.0,-1,0.0,0.0,0.0,0
2786454,1501038888992,,,,,,,,,0,1500,2970,,,,,,,,,,,,,,,
2786464,1501038888996,,,,,,,,,0,1485,2970,,,,,,,,,,,,,,,
2786474,1501038889006,,,,,,,,,0,1455,2970,,,,,,,,,,,,,,,
2786484,1501038889016,3.24,,-0.4,-0.05,1.12,1,-7,3,0,1425,2250,,,,,,,,,,,,,,,
2786494,1501038889026,,,,,,,,,0,1395,2250,,,,,,,,,,,,,,,
2786504,1501038889036,,,,,,,,,0,1350,2250,,,,,,,,,,,,,,,
2786514,1501038889046,,,,,,,,,0,1260,2250,,,,,,,,,,,,,,,
2786524,1501038889056,3.24,,-0.38,-0.06,1.07,-1,-6,5,0,1455,2250,,,,,,,,,,,,,,,
2786534,1501038889066,,,,,,,,,0,1530,2250,,,,,,,,,,,,,,,
2786544,1501038889076,,,,,,,,,0,1500,2250,36.113659,-115.14605,7.75,5.927,2041.3,9,3,1.9,0,0.0,-1,0.0,0.0,0.0,0
2786554,1501038889092,,,,,,,,,0,1440,2250,,,,,,,,,,,,,,,
2786564,1501038889102,3.2,,-0.31,-0.06,1.12,-1,-7,5,0,1410,2250,,,,,,,,,,,,,,,
2786574,1501038889112,,,,,,,,,0,1365,2250,,,,,,,,,,,,,,,
2786584,1501038889122,,,,,,,,,0,1365,570,,,,,,,,,,,,,,,
2786594,1501038889132,,,,,,,,,0,1320,570,,,,,,,,,,,,,,,
2786604,1501038889142,3.24,,-0.33,-0.04,1.05,-1,-8,4,0,1230,570,,,,,,,,,,,,,,,
2786614,1501038889152,,,,,,,,,0,1440,570,,,,,,,,,,,,,,,
2786624,1501038889162,,,,,,,,,0,1545,570,,,,,,,,,,,,,,,
2786634,1501038889172,,,,,,,,,0,1530,570,,,,,,,,,,,,,,,
2786644,1501038889182,3.25,,-0.29,-0.04,1.01,-1,-9,5,0,1485,570,36.113659,-115.146065,7.08,5.927,2041.4,9,3,1.9,0,0.0,-1,0.0,0.0,0.0,0
2786654,1501038889192,,,,,,,,,0,1455,570,,,,,,,,,,,,,,,
2786664,1501038889202,,,,,,,,,0,1410,570,,,,,,,,,,,,,,,
2786674,1501038889212,,,,,,,,,0,1365,570,,,,,,,,,,,,,,,
2786684,1501038889222,3.17,,-0.3,-0.01,0.97,-0,-9,3,0,1275,570,,,,,,,,,,,,,,,
2786694,1501038889232,,,,,,,,,0,1485,380,,,,,,,,,,,,,,,
2786704,1501038889242,,,,,,,,,0,1575,380,,,,,,,,,,,,,,,
2786714,1501038889252,,,,,,,,,0,1560,380,,,,,,,,,,,,,,,
2786724,1501038889262,3.27,,-0.3,0.05,0.95,-1,-8,4,0,1515,380,,,,,,,,,,,,,,,
2786734,1501038889272,,,,,,,,,0,1485,380,,,,,,,,,,,,,,,
2786744,1501038889282,,,,,,,,,0,1440,380,36.113659,-115.146065,6.46,5.928,2041.4,9,3,1.9,0,0.0,-1,0.0,0.0,0.0,0
2786754,1501038889292,,,,,,,,,0,1395,380,,,,,,,,,,,,,,,
2786764,1501038889302,3.21,,-0.31,0.06,0.92,-0,-8,3,0,1305,380,,,,,,,,,,,,,,,
2786774,1501038889312,,,,,,,,,0,1515,380,,,,,,,,,,,,,,,
2786784,1501038889322,,,,,,,,,0,1590,380,,,,,,,,,,,,,,,
2786794,1501038889332,,,,,,,,,0,1575,380,,,,,,,,,,,,,,,
2786804,1501038889342,3.19,,-0.31,0.1,0.88,-0,-8,2,0,1530,380,,,,,,,,,,,,,,,
2786814,1501038889352,,,,,,,,,0,1485,380,,,,,,,,,,,,,,,
2786824,1501038889362,,,,,,,,,0,1455,270,,,,,,,,,,,,,,,
2786834,1501038889372,,,,,,,,,0,1410,270,,,,,,,,,,,,,,,
2786844,1501038889382,3.24,,-0.31,0.11,0.87,-0,-7,2,0,1320,270,36.113659,-115.146065,5.72,5.928,2041.4,9,3,1.9,0,0.0,-1,0.0,0.0,0.0,0
2786854,1501038889392,,,,,,,,,0,1485,270,,,,,,,,,,,,,,,
2786864,1501038889402,,,,,,,,,0,1545,270,,,,,,,,,,,,,,,
2786874,1501038889412,,,,,,,,,0,1545,270,,,,,,,,,,,,,,,
2786884,1501038889422,3.24,,-0.3,0.12,0.85,-1,-7,3,0,1500,270,,,,,,,,,,,,,,,
2786894,1501038889432,,,,,,,,,0,1455,270,,,,,,,,,,,,,,,
2786904,1501038889442,,,,,,,,,0,1425,270,,,,,,,,,,,,,,,
2786914,1501038889452,,,,,,,,,0,1380,270,,,,,,,,,,,,,,,
2786924,1501038889462,3.14,,-0.3,0.1,0.89,-1,-6,3,0,1290,270,,,,,,,,,,,,,,,
2786934,1501038889472,,,,,,,,,0,1485,270,,,,,,,,,,,,,,,
2786944,1501038889482,,,,,,,,,0,1575,270,36.113659,-115.146065,5.31,5.928,2041.3,9,3,1.9,0,0.0,-1,0.0,0.0,0.0,0
2786954,1501038889491,,,,,,,,,0,1560,10000000,,,,,,,,,,,,,,,
2786964,1501038889501,3.22,,-0.29,0.11,0.91,-0,-6,2,0,1515,180,,,,,,,,,,,,,,,
2786974,1501038889511,,,,,,,,,0,1485,180,,,,,,,,,,,,,,,
2786984,1501038889521,,,,,,,,,0,1440,180,,,,,,,,,,,,,,,
2786994,1501038889531,,,,,,,,,0,1440,180,,,,,,,,,,,,,,,
2787004,1501038889541,3.25,,-0.29,0.1,0.98,-0,-5,3,0,1395,180,,,,,,,,,,,,,,,
2787014,1501038889551,,,,,,,,,0,1305,180,,,,,,,,,,,,,,,
2787024,1501038889561,,,,,,,,,0,1485,180,,,,,,,,,,,,,,,
2787034,1501038889571,,,,,,,,,0,1560,180,,,,,,,,,,,,,,,
2787044,1501038889581,3.23,4.52,-0.25,0.1,1.01,0,-5,2,0,1560,180,36.113659,-115.146072,4.79,5.928,2041.3,9,3,1.9,0,0.0,-1,0.0,0.0,0.0,0
2787054,1501038889591,,,,,,,,,0,1500,180,,,,,,,,,,,,,,,
2787064,1501038889601,,,,,,,,,0,1470,180,,,,,,,,,,,,,,,
2787074,1501038889611,,,,,,,,,0,1425,180,,,,,,,,,,,,,,,
2787084,1501038889621,3.23,,-0.23,0.08,1.02,-0,-4,3,0,1395,180,,,,,,,,,,,,,,,
2787094,1501038889631,,,,,,,,,0,1290,180,,,,,,,,,,,,,,,
2787104,1501038889641,,,,,,,,,0,1470,180,,,,,,,,,,,,,,,
2787114,1501038889651,,,,,,,,,0,1560,180,,,,,,,,,,,,,,,
2787124,1501038889661,3.24,,-0.22,0.04,1.14,-0,-4,2,0,1545,130,,,,,,,,,,,,,,,
2787134,1501038889671,,,,,,,,,0,1500,130,,,,,,,,,,,,,,,
2787144,1501038889681,,,,,,,,,0,1455,130,36.113659,-115.146072,4.48,5.928,2041.1,9,3,1.9,0,0.0,-1,0.0,0.0,0.0,0
2787154,1501038889691,,,,,,,,,0,1425,130,,,,,,,,,,,,,,,
2787164,1501038889701,3.25,,-0.21,0.04,1.14,-0,-5,3,0,1365,130,,,,,,,,,,,,,,,
2787174,1501038889711,,,,,,,,,0,1260,130,,,,,,,,,,,,,,,
2787184,1501038889721,,,,,,,,,0,1470,130,,,,,,,,,,,,,,,
2787194,1501038889731,,,,,,,,,0,1575,130,,,,,,,,,,,,,,,
2787204,1501038889741,3.24,,-0.19,-0.01,1.1,-1,-4,5,0,1530,130,,,,,,,,,,,,,,,
2787214,1501038889751,,,,,,,,,0,1485,10000000,,,,,,,,,,,,,,,
2787224,1501038889761,,,,,,,,,0,1455,0,,,,,,,,,,,,,,,
2787234,1501038889771,,,,,,,,,0,1410,0,,,,,,,,,,,,,,,
2787244,1501038889781,3.22,,-0.19,0.01,1.09,-1,-4,5,0,1365,0,36.113659,-115.146072,4.03,5.928,2041.1,9,3,1.9,0,0.0,-1,0.0,0.0,0.0,0
2787254,1501038889791,,,,,,,,,0,1260,0,,,,,,,,,,,,,,,
2787264,1501038889801,,,,,,,,,0,1455,0,,,,,,,,,,,,,,,
2787274,1501038889811,,,,,,,,,0,1545,0,,,,,,,,,,,,,,,
2787284,1501038889821,3.19,,-0.18,0.02,1.06,-0,-4,5,0,1530,0,,,,,,,,,,,,,,,
2787294,1501038889831,,,,,,,,,0,1485,0,,,,,,,,,,,,,,,
2787304,1501038889841,,,,,,,,,0,1440,720,,,,,,,,,,,,,,,
2787314,1501038889851,,,,,,,,,0,1440,720,,,,,,,,,,,,,,,
2787324,1501038889861,3.24,,-0.17,-0.02,1.11,0,-4,6,0,1410,720,,,,,,,,,,,,,,,
2787334,1501038889871,,,,,,,,,0,1365,720,,,,,,,,,,,,,,,
2787344,1501038889881,,,,,,,,,0,1245,720,36.113659,-115.146072,3.62,5.928,2041.2,9,3,1.9,0,0.0,-1,0.0,0.0,0.0,0
2787354,1501038889893,,,,,,,,,0,1410,720,,,,,,,,,,,,,,,
2787364,1501038889903,3.24,,-0.17,-0.04,1.05,-0,-7,6,0,1515,720,,,,,,,,,,,,,,,
2787374,1501038889913,,,,,,,,,0,1485,720,,,,,,,,,,,,,,,
2787384,1501038889923,,,,,,,,,0,1440,720,,,,,,,,,,,,,,,
2787394,1501038889933,,,,,,,,,0,1395,720,,,,,,,,,,,,,,,
2787404,1501038889943,3.23,,-0.15,-0.03,1.01,-0,-6,6,0,1365,720,,,,,,,,,,,,,,,
2787414,1501038889953,,,,,,,,,0,1320,720,,,,,,,,,,,,,,,
2787424,1501038889963,,,,,,,,,0,1215,720,,,,,,,,,,,,,,,
2787434,1501038889973,,,,,,,,,0,1440,720,,,,,,,,,,,,,,,
2787444,1501038889983,3.2,,-0.21,-0.05,1.02,-1,-6,5,0,1530,720,36.113659,-115.146072,3.28,5.929,2041.3,9,3,1.9,0,0.0,-1,0.0,0.0,0.0,0
2787454,1501038889993,,,,,,,,,0,1515,720,,,,,,,,,,,,,,,
2787464,1501038889995,,,,,,,,,0,1485,720,,,,,,,,,,,,,,,
2787474,1501038890005,,,,,,,,,0,1455,0,,,,,,,,,,,,,,,
2787484,1501038890015,3.2,,-0.16,0.0,1.03,-1,-6,5,0,1410,0,,,,,,,,,,,,,,,
2787494,1501038890025,,,,,,,,,0,1410,0,,,,,,,,,,,,,,,
2787504,1501038890035,,,,,,,,,0,1380,0,,,,,,,,,,,,,,,
2787514,1501038890045,,,,,,,,,0,1275,0,,,,,,,,,,,,,,,
2787524,1501038890055,3.16,,-0.21,-0.04,1.02,-1,-4,5,0,1485,0,,,,,,,,,,,,,,,
2787534,1501038890065,,,,,,,,,0,1590,0,,,,,,,,,,,,,,,
2787544,1501038890075,,,,,,,,,0,1575,0,36.113659,-115.146072,3.12,5.929,2041.3,9,3,1.9,0,0.0,-1,0.0,0.0,0.0,0
2787554,1501038890085,,,,,,,,,0,1530,0,,,,,,,,,,,,,,,
2787564,1501038890097,3.24,,-0.19,-0.0,1.03,-0,-5,4,0,1500,120,,,,,,,,,,,,,,,
2787574,1501038890107,,,,,,,,,0,1485,120,,,,,,,,,,,,,,,
2787584,1501038890117,,,,,,,,,0,1440,120,,,,,,,,,,,,,,,
2787594,1501038890127,,,,,,,,,0,1350,120,,,,,,,,,,,,,,,
2787604,1501038890137,3.16,,-0.2,-0.05,1.17,-1,-5,5,0,1665,120,,,,,,,,,,,,,,,
2787614,1501038890147,,,,,,,,,0,1650,120,,,,,,,,,,,,,,,
2787624,1501038890157,,,,,,,,,0,1620,120,,,,,,,,,,,,,,,
2787634,1501038890167,,,,,,,,,0,1605,120,,,,,,,,,,,,,,,
2787644,1501038890177,3.21,,-0.22,-0.01,1.16,0,-5,3,0,1575,120,36.113659,-115.146072,2.41,5.929,2041.4,9,3,1.9,0,0.0,-1,0.0,0.0,0.0,0
2787654,1501038890193,,,,,,,,,0,1560,120,,,,,,,,,,,,,,,
2787664,1501038890203,,,,,,,,,0,1485,120,,,,,,,,,,,,,,,
2787674,1501038890213,,,,,,,,,0,1650,120,,,,,,,,,,,,,,,
2787684,1501038890223,3.22,,-0.21,0.02,1.16,0,-6,2,0,1710,120,,,,,,,,,,,,,,,
2787694,1501038890233,,,,,,,,,0,1695,120,,,,,,,,,,,,,,,
2787704,1501038890243,,,,,,,,,0,1650,120,,,,,,,,,,,,,,,
2787714,1501038890253,,,,,,,,,0,1605,120,,,,,,,,,,,,,,,
2787724,1501038890263,3.26,,-0.19,0.05,1.07,0,-8,2,0,1575,10000000,,,,,,,,,,,,,,,
2787734,1501038890273,,,,,,,,,0,1545,0,,,,,,,,,,,,,,,
2787744,1501038890283,,,,,,,,,0,1590,0,36.113659,-115.146088,1.89,5.929,2041.5,9,3,1.9,0,0.0,-1,0.0,0.0,0.0,0
2787754,1501038890293,,,,,,,,,0,1620,0,,,,,,,,,,,,,,,
2787764,1501038890303,3.24,,-0.21,0.03,0.95,0,-9,1,0,1605,0,,,,,,,,,,,,,,,
2787774,1501038890313,,,,,,,,,0,1545,0,,,,,,,,,,,,,,,
2787784,1501038890323,,,,,,,,,0,1515,0,,,,,,,,,,,,,,,
2787794,1501038890333,,,,,,,,,0,1485,0,,,,,,,,,,,,,,,
2787804,1501038890343,3.18,,-0.19,-0.01,0.93,0,-8,1,0,1455,0,,,,,,,,,,,,,,,
2787814,1501038890353,,,,,,,,,0,1380,0,,,,,,,,,,,,,,,
2787824,1501038890363,,,,,,,,,0,1515,0,,,,,,,,,,,,,,,
2787834,1501038890373,,,,,,,,,0,1560,0,,,,,,,,,,,,,,,
2787844,1501038890383,3.22,,-0.17,-0.03,0.97,-0,-8,2,0,1545,0,36.113659,-115.146088,2.08,5.929,2041.6,9,3,1.9,0,0.0,-1,0.0,0.0,0.0,0
2787854,1501038890393,,,,,,,,,0,1500,0,,,,,,,,,,,,,,,
2787864,1501038890403,,,,,,,,,0,1485,0,,,,,,,,,,,,,,,
2787874,1501038890413,,,,,,,,,0,1440,0,,,,,,,,,,,,,,,
2787884,1501038890423,3.23,,-0.14,-0.05,1.03,-0,-7,2,0,1440,0,,,,,,,,,,,,,,,
2787894,1501038890433,,,,,,,,,0,1410,0,,,,,,,,,,,,,,,
2787904,1501038890443,,,,,,,,,0,1320,0,,,,,,,,,,,,,,,
2787914,1501038890453,,,,,,,,,0,1500,0,,,,,,,,,,,,,,,
2787924,1501038890463,3.18,,-0.15,-0.05,1.01,0,-8,2,0,1545,0,,,,,,,,,,,,,,,
2787934,1501038890473,,,,,,,,,0,1500,0,,,,,,,,,,,,,,,
2787944,1501038890483,,,,,,,,,0,1500,0,36.113659,-115.146088,1.44,5.929,2041.7,9,3,1.9,0,0.0,-1,0.0,0.0,0.0,0
2787954,1501038890494,,,,,,,,,0,1470,0,,,,,,,,,,,,,,,
2787964,1501038890504,3.23,,-0.11,-0.08,1.05,0,-6,2,0,1440,0,,,,,,,,,,,,,,,
2787974,1501038890514,,,,,,,,,0,1410,0,,,,,,,,,,,,,,,
2787984,1501038890524,,,,,,,,,0,1305,0,,,,,,,,,,,,,,,
2787994,1501038890534,,,,,,,,,0,1500,0,,,,,,,,,,,,,,,
2788004,1501038890544,3.23,,-0.09,-0.07,0.99,-0,-7,1,0,1575,0,,,,,,,,,,,,,,,
2788014,1501038890554,,,,,,,,,0,1545,0,,,,,,,,,,,,,,,
2788024,1501038890564,,,,,,,,,0,1500,0,,,,,,,,,,,,,,,
2788034,1501038890574,,,,,,,,,0,1470,0,,,,,,,,,,,,,,,
2788044,1501038890584,3.18,4.5,-0.07,-0.08,0.97,-1,-6,2,0,1425,0,36.113659,-115.146088,1.09,5.929,2041.7,9,3,1.9,0,0.0,-1,0.0,0.0,0.0,0
2788054,1501038890594,,,,,,,,,0,1395,0,,,,,,,,,,,,,,,
2788064,1501038890604,,,,,,,,,0,1290,0,,,,,,,,,,,,,,,
2788074,1501038890614,,,,,,,,,0,1500,0,,,,,,,,,,,,,,,
2788084,1501038890624,3.19,,-0.06,-0.08,0.89,-1,-7,2,0,1590,0,,,,,,,,,,,,,,,
2788094,1501038890634,,,,,,,,,0,1560,0,,,,,,,,,,,,,,,
2788104,1501038890644,,,,,,,,,0,1530,0,,,,,,,,,,,,,,,
2788114,1501038890654,,,,,,,,,0,1500,0,,,,,,,,,,,,,,,
2788124,1501038890664,3.18,,-0.06,-0.09,0.9,-1,-6,3,0,1470,0,,,,,,,,,,,,,,,
2788134,1501038890674,,,,,,,,,0,1440,0,,,,,,,,,,,,,,,
2788144,1501038890684,,,,,,,,,0,1350,0,36.113659,-115.146088,0.0,5.929,2041.6,9,3,1.9,0,0.0,-1,0.0,0.0,0.0,0
2788154,1501038890694,,,,,,,,,0,1560,0,,,,,,,,,,,,,,,
2788164,1501038890704,3.2,,-0.07,-0.1,0.86,-1,-6,3,0,1650,0,,,,,,,,,,,,,,,
2788174,1501038890714,,,,,,,,,0,1635,0,,,,,,,,,,,,,,,
2788184,1501038890724,,,,,,,,,0,1605,0,,,,,,,,,,,,,,,
2788194,1501038890734,,,,,,,,,0,1575,0,,,,,,,,,,,,,,,
2788204,1501038890744,3.18,,-0.07,-0.11,0.89,-1,-6,4,0,1545,0,,,,,,,,,,,,,,,
2788214,1501038890754,,,,,,,,,0,1530,0,,,,,,,,,,,,,,,
2788224,1501038890764,,,,,,,,,0,1620,0,,,,,,,,,,,,,,,
2788234,1501038890774,,,,,,,,,0,1680,0,,,,,,,,,,,,,,,
2788244,1501038890784,3.2,,-0.1,-0.11,0.83,-1,-7,3,0,1665,0,36.113659,-115.146088,0.0,5.929,2041.4,9,3,1.9,0,0.0,-1,0.0,0.0,0.0,0
2788254,1501038890792,,,,,,,,,0,1635,0,,,,,,,,,,,,,,,
2788264,1501038890802,,,,,,,,,0,1605,0,,,,,,,,,,,,,,,
2788274,1501038890812,,,,,,,,,0,1575,0,,,,,,,,,,,,,,,
2788284,1501038890822,3.2,,-0.08,-0.13,0.88,-1,-5,4,0,1545,0,,,,,,,,,,,,,,,
2788294,1501038890832,,,,,,,,,0,1485,0,,,,,,,,,,,,,,,
2788304,1501038890842,,,,,,,,,0,1620,0,,,,,,,,,,,,,,,
2788314,1501038890852,,,,,,,,,0,1665,0,,,,,,,,,,,,,,,
2788324,1501038890862,3.19,,-0.06,-0.13,0.97,-1,-3,5,0,1650,0,,,,,,,,,,,,,,,
2788334,1501038890872,,,,,,,,,0,1620,0,,,,,,,,,,,,,,,
2788344,1501038890882,,,,,,,,,0,1590,0,36.113659,-115.146088,0.0,5.929,2041.4,9,3,1.9,0,0.0,-1,0.0,0.0,0.0,0
2788354,1501038890894,,,,,,,,,0,1560,0,,,,,,,,,,,,,,,
2788364,1501038890904,3.19,,-0.06,-0.1,1.05,-2,-3,5,0,1530,0,,,,,,,,,,,,,,,
2788374,1501038890914,,,,,,,,,0,1590,0,,,,,,,,,,,,,,,
2788384,1501038890924,,,,,,,,,0,1650,0,,,,,,,,,,,,,,,
2788394,1501038890934,,,,,,,,,0,1635,0,,,,,,,,,,,,,,,
2788404,1501038890944,3.19,,-0.03,-0.07,0.99,-1,-4,3,0,1590,0,,,,,,,,,,,,,,,
2788414,1501038890954,,,,,,,,,0,1560,0,,,,,,,,,,,,,,,
2788424,1501038890964,,,,,,,,,0,1530,0,,,,,,,,,,,,,,,
2788434,1501038890974,,,,,,,,,0,1500,0,,,,,,,,,,,,,,,
2788444,1501038890984,3.19,,-0.03,-0.02,0.95,-1,-5,2,0,1425,0,36.113659,-115.146088,0.0,5.929,2041.4,9,3,1.9,0,0.0,-1,0.0,0.0,0.0,0
2788454,1501038890994,,,,,,,,,0,1575,0,,,,,,,,,,,,,,,
2788464,1501038890996,,,,,,,,,0,1635,0,,,,,,,,,,,,,,,
2788474,1501038891006,,,,,,,,,0,1605,0,,,,,,,,,,,,,,,
2788484,1501038891016,3.19,,-0.04,0.01,0.86,-2,-7,3,0,1575,0,,,,,,,,,,,,,,,
2788494,1501038891026,,,,,,,,,0,1545,0,,,,,,,,,,,,,,,
2788504,1501038891036,,,,,,,,,0,1515,0,,,,,,,,,,,,,,,
2788514,1501038891046,,,,,,,,,0,1485,0,,,,,,,,,,,,,,,
2788524,1501038891056,3.19,,-0.02,-0.01,0.85,-1,-8,3,0,1395,0,,,,,,,,,,,,,,,
2788534,1501038891066,,,,,,,,,0,1560,0,,,,,,,,,,,,,,,
2788544,1501038891076,,,,,,,,,0,1620,0,36.113659,-115.146088,0.0,5.929,2041.4,9,3,1.9,0,0.0,-1,0.0,0.0,0.0,0
2788554,1501038891092,,,,,,,,,0,1590,0,,,,,,,,,,,,,,,
2788564,1501038891102,3.25,,-0.01,-0.02,0.86,-1,-9,4,0,1560,0,,,,,,,,,,,,,,,
2788574,1501038891112,,,,,,,,,0,1530,0,,,,,,,,,,,,,,,
2788584,1501038891122,,,,,,,,,0,1500,0,,,,,,,,,,,,,,,
2788594,1501038891132,,,,,,,,,0,1470,0,,,,,,,,,,,,,,,
2788604,1501038891142,3.25,,-0.0,-0.03,0.86,-1,-9,4,0,1395,0,,,,,,,,,,,,,,,
2788614,1501038891152,,,,,,,,,0,1560,0,,,,,,,,,,,,,,,
2788624,1501038891162,,,,,,,,,0,1635,0,,,,,,,,,,,,,,,
2788634,1501038891172,,,,,,,,,0,1605,0,,,,,,,,,,,,,,,
2788644,1501038891182,3.26,,0.02,-0.05,0.87,-1,-9,5,0,1575,0,36.113659,-115.146088,0.0,5.929,2041.2,9,3,1.9,0,0.0,-1,0.0,0.0,0.0,0
2788654,1501038891194,,,,,,,,,0,1545,0,,,,,,,,,,,,,,,
2788664,1501038891204,,,,,,,,,0,1515,0,,,,,,,,,,,,,,,
2788674,1501038891214,,,,,,,,,0,1485,0,,,,,,,,,,,,,,,
2788684,1501038891224,3.3,,0.02,-0.04,0.86,-1,-9,4,0,1395,0,,,,,,,,,,,,,,,
2788694,1501038891234,,,,,,,,,0,1635,0,,,,,,,,,,,,,,,
2788704,1501038891244,,,,,,,,,0,1620,0,,,,,,,,,,,,,,,
2788714,1501038891254,,,,,,,,,0,1575,0,,,,,,,,,,,,,,,
2788724,1501038891264,3.28,,0.03,-0.07,0.97,-1,-6,5,0,1560,0,,,,,,,,,,,,,,,
2788734,1501038891274,,,,,,,,,0,1530,0,,,,,,,,,,,,,,,
2788744,1501038891284,,,,,,,,,0,1485,0,36.113659,-115.146088,0.0,5.929,2041.2,9,3,1.9,0,0.0,-1,0.0,0.0,0.0,0
2788754,1501038891294,,,,,,,,,0,1410,0,,,,,,,,,,,,,,,
2788764,1501038891304,3.29,,0.01,-0.08,0.97,-1,-5,4,0,1575,0,,,,,,,,,,,,,,,
2788774,1501038891314,,,,,,,,,0,1650,0,,,,,,,,,,,,,,,
2788784,1501038891324,,,,,,,,,0,1620,0,,,,,,,,,,,,,,,
2788794,1501038891334,,,,,,,,,0,1590,0,,,,,,,,,,,,,,,
2788804,1501038891344,3.27,,0.01,-0.07,1.06,-1,-5,5,0,1560,0,,,,,,,,,,,,,,,
2788814,1501038891354,,,,,,,,,0,1530,0,,,,,,,,,,,,,,,
2788824,1501038891364,,,,,,,,,0,1485,0,,,,,,,,,,,,,,,
2788834,1501038891374,,,,,,,,,0,1410,0,,,,,,,,,,,,,,,
2788844,1501038891384,3.27,,0.0,-0.04,1.07,-2,-1,8,0,1575,0,36.113659,-115.146088,0.0,5.929,2041.3,9,3,1.9,0,0.0,-1,0.0,0.0,0.0,0
2788854,1501038891394,,,,,,,,,0,1650,0,,,,,,,,,,,,,,,
2788864,1501038891404,,,,,,,,,0,1620,0,,,,,,,,,,,,,,,
2788874,1501038891414,,,,,,,,,0,1575,0,,,,,,,,,,,,,,,
2788884,1501038891424,3.27,,0.0,-0.04,1.05,-2,-2,6,0,1560,0,,,,,,,,,,,,,,,
2788894,1501038891434,,,,,,,,,0,1530,0,,,,,,,,,,,,,,,
2788904,1501038891444,,,,,,,,,0,1485,0,,,,,,,,,,,,,,,
2788914,1501038891454,,,,,,,,,0,1410,0,,,,,,,,,,,,,,,
2788924,1501038891464,3.27,,0.03,-0.03,1.16,-2,-3,6,0,1575,0,,,,,,,,,,,,,,,
2788934,1501038891474,,,,,,,,,0,1635,0,,,,,,,,,,,,,,,
2788944,1501038891484,,,,,,,,,0,1605,0,36.113659,-115.146088,0.0,5.929,2041.2,9,3,1.9,0,0.0,-1,0.0,0.0,0.0,0
2788954,1501038891493,,,,,,,,,0,1560,0,,,,,,,,,,,,,,,
2788964,1501038891503,3.29,,-0.01,0.0,1.07,-2,-3,5,0,1545,0,,,,,,,,,,,,,,,
2788974,1501038891513,,,,,,,,,0,1515,0,,,,,,,,,,,,,,,
2788984,1501038891523,,,,,,,,,0,1485,0,,,,,,,,,,,,,,,
2788994,1501038891533,,,,,,,,,0,1560,0,,,,,,,,,,,,,,,
2789004,1501038891543,3.26,,-0.03,0.01,1.12,-1,-3,5,0,1635,0,,,,,,,,,,,,,,,
2789014,1501038891553,,,,,,,,,0,1605,0,,,,,,,,,,,,,,,
2789024,1501038891563,,,,,,,,,0,1575,0,,,,,,,,,,,,,,,
2789034,1501038891573,,,,,,,,,0,1545,0,,,,,,,,,,,,,,,
2789044,1501038891583,3.26,4.5,-0.04,0.04,1.04,-1,-3,5,0,1500,0,36.113659,-115.146088,0.0,5.929,2041.2,9,3,1.9,0,0.0,-1,0.0,0.0,0.0,0
2789054,1501038891593,,,,,,,,,0,1485,0,,,,,,,,,,,,,,,
2789064,1501038891603,,,,,,,,,0,1395,0,,,,,,,,,,,,,,,
2789074,1501038891613,,,,,,,,,0,1560,0,,,,,,,,,,,,,,,
2789084,1501038891623,3.25,,-0.04,0.07,0.96,-1,-3,3,0,1635,0,,,,,,,,,,,,,,,
2789094,1501038891633,,,,,,,,,0,1605,0,,,,,,,,,,,,,,,
2789104,1501038891643,,,,,,,,,0,1575,0,,,,,,,,,,,,,,,
2789114,1501038891653,,,,,,,,,0,1545,0,,,,,,,,,,,,,,,
2789124,1501038891663,3.26,,-0.02,0.04,0.96,-2,-3,3,0,1515,0,,,,,,,,,,,,,,,
2789134,1501038891673,,,,,,,,,0,1485,0,,,,,,,,,,,,,,,
2789144,1501038891683,,,,,,,,,0,1395,0,36.113659,-115.146088,0.0,5.929,2041.2,9,3,1.9,0,0.0,-1,0.0,0.0,0.0,0
2789154,1501038891693,,,,,,,,,0,1575,0,,,,,,,,,,,,,,,
2789164,1501038891703,3.25,,-0.01,0.08,0.86,-2,-6,2,0,1635,0,,,,,,,,,,,,,,,
2789174,1501038891713,,,,,,,,,0,1605,0,,,,,,,,,,,,,,,
2789184,1501038891723,,,,,,,,,0,1575,0,,,,,,,,,,,,,,,
2789194,1501038891733,,,,,,,,,0,1545,0,,,,,,,,,,,,,,,
2789204,1501038891743,3.23,,0.0,0.01,0.91,-1,-5,4,0,1515,0,,,,,,,,,,,,,,,
2789214,1501038891753,,,,,,,,,0,1485,0,,,,,,,,,,,,,,,
2789224,1501038891763,,,,,,,,,0,1395,0,,,,,,,,,,,,,,,
2789234,1501038891773,,,,,,,,,0,1575,0,,,,,,,,,,,,,,,
2789244,1501038891783,3.2,,0.01,0.0,0.84,-1,-7,4,0,1635,0,36.113659,-115.146088,0.0,5.929,2041.2,9,3,1.9,0,0.0,-1,0.0,0.0,0.0,0
2789254,1501038891793,,,,,,,,,0,1620,0,,,,,,,,,,,,,,,
2789264,1501038891803,,,,,,,,,0,1590,0,,,,,,,,,,,,,,,
2789274,1501038891813,,,,,,,,,0,1560,0,,,,,,,,,,,,,,,
2789284,1501038891823,3.17,,0.02,-0.04,0.93,-2,-7,5,0,1530,0,,,,,,,,,,,,,,,
2789294,1501038891833,,,,,,,,,0,1485,0,,,,,,,,,,,,,,,
2789304,1501038891843,,,,,,,,,0,1575,0,,,,,,,,,,,,,,,
2789314,1501038891853,,,,,,,,,0,1650,0,,,,,,,,,,,,,,,
2789324,1501038891863,3.16,,0.02,-0.07,0.94,-2,-5,5,0,1620,0,,,,,,,,,,,,,,,
2789334,1501038891873,,,,,,,,,0,1575,0,,,,,,,,,,,,,,,
2789344,1501038891883,,,,,,,,,0,1560,0,36.113659,-115.146088,0.0,5.929,2041.2,9,3,1.9,0,0.0,-1,0.0,0.0,0.0,0
2789354,1501038891893,,,,,,,,,0,1530,0,,,,,,,,,,,,,,,
2789364,1501038891903,3.17,,0.01,-0.08,1.0,-2,-5,4,0,1500,0,,,,,,,,,,,,,,,
2789374,1501038891913,,,,,,,,,0,1410,0,,,,,,,,,,,,,,,
2789384,1501038891923,,,,,,,,,0,1575,0,,,,,,,,,,,,,,,
2789394,1501038891933,,,,,,,,,0,1650,0,,,,,,,,,,,,,,,
2789404,1501038891943,3.16,,-0.01,-0.08,1.03,-1,-3,5,0,1620,0,,,,,,,,,,,,,,,
2789414,1501038891953,,,,,,,,,0,1590,0,,,,,,,,,,,,,,,
2789424,1501038891963,,,,,,,,,0,1560,0,,,,,,,,,,,,,,,
2789434,1501038891973,,,,,,,,,0,1530,0,,,,,,,,,,,,,,,
2789444,1501038891983,3.17,,-0.0,-0.05,1.01,-2,-3,6,0,1500,0,36.113659,-115.146088,0.0,5.929,2041.2,9,3,1.9,0,0.0,-1,0.0,0.0,0.0,0
2789454,1501038891993,,,,,,,,,0,1410,0,,,,,,,,,,,,,,,
2789464,1501038891997,,,,,,,,,0,1575,0,,,,,,,,,,,,,,,
