"Interval"|"ms"|0|0|1,"Utc"|"ms"|0|0|1,"Analog1"|""|0.0|5.0|25,"Battery"|"Volts"|0.0|20.0|1,"AccelX"|"G"|-3.0|3.0|25,"AccelY"|"G"|-3.0|3.0|25,"AccelZ"|"G"|-3.0|3.0|25,"Yaw"|"Deg/Sec"|-120|120|25,"Pitch"|"Deg/Sec"|-120|120|25,"Roll"|"Deg/Sec"|-120|120|25,"RPM"|""|0|10000|100,"EngineRPM"|""|0|10000|100,"AxleRpm"|""|0|10000|100,"Latitude"|"Degrees"|-180.0|180.0|10,"Longitude"|"Degrees"|-180.0|180.0|10,"Speed"|"mph"|0.0|150.0|10,"Distance"|"mi"|0.0|0.0|10,"Altitude"|"ft"|0.0|4000.0|10,"GPSSats"|""|0|20|10,"GPSQual"|""|0|5|10,"GPSDOP"|""|0.0|20.0|10,"LapCount"|""|0|0|10,"LapTime"|"Min"|0.0|0.0|10,"Sector"|""|0|0|10,"SectorTime"|"Min"|0.0|0.0|10,"PredTime"|"Min"|0.0|0.0|10,"ElapsedTime"|"Min"|0.0|0.0|10,"CurrentLap"|""|0|0|10
2948414,1501039050956,,,,,,,,,0,1515,0,,,,,,,,,,,,,,,
2948424,1501039050966,,,,,,,,,0,1440,0,,,,,,,,,,,,,,,
2948434,1501039050976,,,,,,,,,0,1590,0,,,,,,,,,,,,,,,
2948444,1501039050986,3.13,,-0.04,-0.03,1.06,-2,-5,4,0,1665,0,36.113663,-115.145653,0.0,6.287,2036.1,9,3,1.9,0,0.0,-1,0.0,0.0,0.0,0
2948454,1501039050996,,,,,,,,,0,1635,0,,,,,,,,,,,,,,,
2948464,1501039050996,,,,,,,,,0,1605,0,,,,,,,,,,,,,,,
2948474,1501039051006,,,,,,,,,0,1575,0,,,,,,,,,,,,,,,
2948484,1501039051016,3.15,,-0.05,-0.05,0.98,-3,-5,4,0,1545,0,,,,,,,,,,,,,,,
2948494,1501039051026,,,,,,,,,0,1515,0,,,,,,,,,,,,,,,
2948504,1501039051036,,,,,,,,,0,1440,0,,,,,,,,,,,,,,,
2948514,1501039051046,,,,,,,,,0,1590,0,,,,,,,,,,,,,,,
2948524,1501039051056,3.17,,0.01,-0.09,0.89,-3,-8,4,0,1665,0,,,,,,,,,,,,,,,
2948534,1501039051066,,,,,,,,,0,1635,0,,,,,,,,,,,,,,,
2948544,1501039051076,,,,,,,,,0,1605,0,36.113663,-115.145653,0.0,6.287,2036.1,9,3,1.9,0,0.0,-1,0.0,0.0,0.0,0
2948554,1501039051096,,,,,,,,,0,1575,0,,,,,,,,,,,,,,,
2948564,1501039051106,3.13,,0.01,-0.08,0.89,-2,-7,4,0,1545,0,,,,,,,,,,,,,,,
2948574,1501039051116,,,,,,,,,0,1515,0,,,,,,,,,,,,,,,
2948584,1501039051126,,,,,,,,,0,1440,0,,,,,,,,,,,,,,,
2948594,1501039051136,,,,,,,,,0,1665,0,,,,,,,,,,,,,,,
2948604,1501039051146,3.16,,0.0,-0.05,0.87,-2,-8,4,0,1635,0,,,,,,,,,,,,,,,
2948614,1501039051156,,,,,,,,,0,1605,0,,,,,,,,,,,,,,,
2948624,1501039051166,,,,,,,,,0,1575,0,,,,,,,,,,,,,,,
2948634,1501039051176,,,,,,,,,0,1545,0,,,,,,,,,,,,,,,
2948644,1501039051186,3.18,,0.0,-0.05,0.89,-2,-1,4,0,1515,0,36.113663,-115.145653,0.0,6.287,2036.1,9,3,1.9,0,0.0,-1,0.0,0.0,0.0,0
2948654,1501039051196,,,,,,,,,0,1440,0,,,,,,,,,,,,,,,
2948664,1501039051206,,,,,,,,,0,1590,0,,,,,,,,,,,,,,,
2948674,1501039051216,,,,,,,,,0,1650,0,,,,,,,,,,,,,,,
2948684,1501039051226,3.16,,-0.03,-0.04,0.85,-1,-0,5,0,1635,0,,,,,,,,,,,,,,,
2948694,1501039051236,,,,,,,,,0,1605,0,,,,,,,,,,,,,,,
2948704,1501039051246,,,,,,,,,0,1575,0,,,,,,,,,,,,,,,
2948714,1501039051256,,,,,,,,,0,1545,0,,,,,,,,,,,,,,,
2948724,1501039051266,3.15,,-0.01,-0.07,0.9,-1,3,5,0,1515,0,,,,,,,,,,,,,,,
2948734,1501039051276,,,,,,,,,0,1440,0,,,,,,,,,,,,,,,
2948744,1501039051286,,,,,,,,,0,1590,0,36.113663,-115.145653,0.0,6.287,2036.1,9,3,1.9,0,0.0,-1,0.0,0.0,0.0,0
2948754,1501039051296,,,,,,,,,0,1650,0,,,,,,,,,,,,,,,
2948764,1501039051306,3.16,,-0.01,-0.1,0.95,-2,5,4,0,1635,0,,,,,,,,,,,,,,,
2948774,1501039051316,,,,,,,,,0,1590,0,,,,,,,,,,,,,,,
2948784,1501039051326,,,,,,,,,0,1575,0,,,,,,,,,,,,,,,
2948794,1501039051336,,,,,,,,,0,1545,0,,,,,,,,,,,,,,,
2948804,1501039051346,3.18,,-0.01,-0.1,1.07,-1,3,4,0,1515,0,,,,,,,,,,,,,,,
2948814,1501039051356,,,,,,,,,0,1590,0,,,,,,,,,,,,,,,
2948824,1501039051366,,,,,,,,,0,1650,0,,,,,,,,,,,,,,,
2948834,1501039051376,,,,,,,,,0,1635,0,,,,,,,,,,,,,,,
2948844,1501039051386,3.17,,-0.01,-0.09,1.1,-1,3,2,0,1590,0,36.113663,-115.145653,0.0,6.287,2036.1,9,3,1.9,0,0.0,-1,0.0,0.0,0.0,0
2948854,1501039051398,,,,,,,,,0,1575,0,,,,,,,,,,,,,,,
2948864,1501039051408,,,,,,,,,0,1530,0,,,,,,,,,,,,,,,
2948874,1501039051418,,,,,,,,,0,1515,0,,,,,,,,,,,,,,,
2948884,1501039051428,3.16,,0.0,-0.08,1.05,-0,-0,2,0,1440,0,,,,,,,,,,,,,,,
2948894,1501039051438,,,,,,,,,0,1590,0,,,,,,,,,,,,,,,
2948904,1501039051448,,,,,,,,,0,1650,0,,,,,,,,,,,,,,,
2948914,1501039051458,,,,,,,,,0,1635,0,,,,,,,,,,,,,,,
2948924,1501039051468,3.21,,0.02,-0.06,1.03,-1,-2,4,0,1590,0,,,,,,,,,,,,,,,
2948934,1501039051478,,,,,,,,,0,1575,0,,,,,,,,,,,,,,,
2948944,1501039051488,,,,,,,,,0,1530,0,36.113663,-115.145653,0.0,6.287,2036.1,9,3,1.9,0,0.0,-1,0.0,0.0,0.0,0
2948954,1501039051496,,,,,,,,,0,1515,0,,,,,,,,,,,,,,,
2948964,1501039051506,3.15,,0.06,-0.05,1.0,-1,-6,4,0,1440,0,,,,,,,,,,,,,,,
2948974,1501039051516,,,,,,,,,0,1590,0,,,,,,,,,,,,,,,
2948984,1501039051526,,,,,,,,,0,1650,0,,,,,,,,,,,,,,,
2948994,1501039051536,,,,,,,,,0,1635,0,,,,,,,,,,,,,,,
2949004,1501039051546,3.15,,0.06,-0.05,1.0,-1,-8,4,0,1575,0,,,,,,,,,,,,,,,
2949014,1501039051556,,,,,,,,,0,1545,0,,,,,,,,,,,,,,,
2949024,1501039051566,,,,,,,,,0,1515,0,,,,,,,,,,,,,,,
2949034,1501039051576,,,,,,,,,0,1440,0,,,,,,,,,,,,,,,
2949044,1501039051586,3.2,4.5,0.02,-0.02,0.95,-1,-9,3,0,1590,0,36.113663,-115.145653,0.0,6.287,2036.1,9,3,1.9,0,0.0,-1,0.0,0.0,0.0,0
2949054,1501039051598,,,,,,,,,0,1650,0,,,,,,,,,,,,,,,
2949064,1501039051608,,,,,,,,,0,1635,0,,,,,,,,,,,,,,,
2949074,1501039051618,,,,,,,,,0,1590,0,,,,,,,,,,,,,,,
2949084,1501039051628,3.2,,-0.0,-0.02,0.97,-1,-9,4,0,1575,0,,,,,,,,,,,,,,,
2949094,1501039051638,,,,,,,,,0,1545,0,,,,,,,,,,,,,,,
2949104,1501039051648,,,,,,,,,0,1515,0,,,,,,,,,,,,,,,
2949114,1501039051658,,,,,,,,,0,1440,0,,,,,,,,,,,,,,,
2949124,1501039051668,3.2,,-0.04,-0.0,0.99,-1,-4,4,0,1590,0,,,,,,,,,,,,,,,
2949134,1501039051678,,,,,,,,,0,1650,0,,,,,,,,,,,,,,,
2949144,1501039051688,,,,,,,,,0,1635,0,36.113663,-115.145653,0.0,6.287,2036.1,9,3,1.9,0,0.0,-1,0.0,0.0,0.0,0
2949154,1501039051697,,,,,,,,,0,1590,0,,,,,,,,,,,,,,,
2949164,1501039051707,3.2,,-0.06,-0.02,0.99,-2,-3,4,0,1575,0,,,,,,,,,,,,,,,
2949174,1501039051717,,,,,,,,,0,1545,0,,,,,,,,,,,,,,,
2949184,1501039051727,,,,,,,,,0,1515,0,,,,,,,,,,,,,,,
2949194,1501039051737,,,,,,,,,0,1440,0,,,,,,,,,,,,,,,
2949204,1501039051747,3.19,,-0.03,-0.03,1.05,-2,-1,5,0,1590,0,,,,,,,,,,,,,,,
2949214,1501039051757,,,,,,,,,0,1635,0,,,,,,,,,,,,,,,
2949224,1501039051767,,,,,,,,,0,1590,0,,,,,,,,,,,,,,,
2949234,1501039051777,,,,,,,,,0,1575,0,,,,,,,,,,,,,,,
2949244,1501039051787,3.2,,-0.03,-0.04,1.02,-2,-2,4,0,1530,0,36.113663,-115.145653,0.0,6.287,2036.1,9,3,1.9,0,0.0,-1,0.0,0.0,0.0,0
2949254,1501039051797,,,,,,,,,0,1515,0,,,,,,,,,,,,,,,
2949264,1501039051807,,,,,,,,,0,1440,0,,,,,,,,,,,,,,,
2949274,1501039051817,,,,,,,,,0,1590,0,,,,,,,,,,,,,,,
2949284,1501039051827,3.19,,-0.03,-0.04,1.1,-1,-2,4,0,1650,0,,,,,,,,,,,,,,,
2949294,1501039051837,,,,,,,,,0,1620,0,,,,,,,,,,,,,,,
2949304,1501039051847,,,,,,,,,0,1590,0,,,,,,,,,,,,,,,
2949314,1501039051857,,,,,,,,,0,1560,0,,,,,,,,,,,,,,,
2949324,1501039051867,3.21,,-0.02,-0.01,1.05,-1,-4,4,0,1530,0,,,,,,,,,,,,,,,
2949334,1501039051877,,,,,,,,,0,1515,0,,,,,,,,,,,,,,,
2949344,1501039051887,,,,,,,,,0,1425,0,36.113663,-115.145653,0.0,6.287,2036.1,9,3,1.9,0,0.0,-1,0.0,0.0,0.0,0
2949354,1501039051897,,,,,,,,,0,1590,0,,,,,,,,,,,,,,,
2949364,1501039051907,3.21,,0.02,-0.04,1.02,-0,-6,3,0,1650,0,,,,,,,,,,,,,,,
2949374,1501039051917,,,,,,,,,0,1635,0,,,,,,,,,,,,,,,
2949384,1501039051927,,,,,,,,,0,1605,0,,,,,,,,,,,,,,,
2949394,1501039051937,,,,,,,,,0,1575,0,,,,,,,,,,,,,,,
2949404,1501039051947,3.21,,0.01,-0.02,0.96,-1,-7,4,0,1545,0,,,,,,,,,,,,,,,
2949414,1501039051957,,,,,,,,,0,1515,0,,,,,,,,,,,,,,,
2949424,1501039051967,,,,,,,,,0,1440,0,,,,,,,,,,,,,,,
2949434,1501039051977,,,,,,,,,0,1650,0,,,,,,,,,,,,,,,
2949444,1501039051987,3.16,,0.01,0.0,0.95,-1,-10,5,0,1635,0,36.113663,-115.145653,0.0,6.287,2036.1,9,3,1.9,0,0.0,-1,0.0,0.0,0.0,0
2949454,1501039051997,,,,,,,,,0,1590,0,,,,,,,,,,,,,,,
2949464,1501039051999,,,,,,,,,0,1575,0,,,,,,,,,,,,,,,
2949474,1501039052009,,,,,,,,,0,1530,0,,,,,,,,,,,,,,,
2949484,1501039052019,3.2,,-0.03,-0.0,0.97,-1,-8,4,0,1515,0,,,,,,,,,,,,,,,
2949494,1501039052029,,,,,,,,,0,1440,0,,,,,,,,,,,,,,,
2949504,1501039052039,,,,,,,,,0,1590,0,,,,,,,,,,,,,,,
2949514,1501039052049,,,,,,,,,0,1650,0,,,,,,,,,,,,,,,
2949524,1501039052059,3.18,,-0.05,-0.01,0.92,-1,-7,3,0,1620,0,,,,,,,,,,,,,,,
2949534,1501039052069,,,,,,,,,0,1590,0,,,,,,,,,,,,,,,
2949544,1501039052079,,,,,,,,,0,1575,0,36.113663,-115.145653,0.0,6.287,2036.1,9,3,1.9,0,0.0,-1,0.0,0.0,0.0,0
2949554,1501039052095,,,,,,,,,0,1545,0,,,,,,,,,,,,,,,
2949564,1501039052105,3.17,,-0.04,-0.01,0.96,-1,-3,4,0,1515,0,,,,,,,,,,,,,,,
2949574,1501039052115,,,,,,,,,0,1440,0,,,,,,,,,,,,,,,
2949584,1501039052125,,,,,,,,,0,1590,0,,,,,,,,,,,,,,,
2949594,1501039052135,,,,,,,,,0,1650,0,,,,,,,,,,,,,,,
2949604,1501039052145,3.17,,-0.06,-0.01,0.93,-2,-1,5,0,1635,0,,,,,,,,,,,,,,,
2949614,1501039052155,,,,,,,,,0,1605,0,,,,,,,,,,,,,,,
2949624,1501039052165,,,,,,,,,0,1575,0,,,,,,,,,,,,,,,
2949634,1501039052175,,,,,,,,,0,1545,0,,,,,,,,,,,,,,,
2949644,1501039052185,3.19,,-0.05,-0.02,1.07,-2,-2,4,0,1515,0,36.113663,-115.145653,0.0,6.287,2036.1,9,3,1.9,0,0.0,-1,0.0,0.0,0.0,0
2949654,1501039052197,,,,,,,,,0,1590,0,,,,,,,,,,,,,,,
2949664,1501039052207,,,,,,,,,0,1650,0,,,,,,,,,,,,,,,
2949674,1501039052217,,,,,,,,,0,1635,0,,,,,,,,,,,,,,,
2949684,1501039052227,3.18,,-0.04,-0.01,1.08,-1,0,3,0,1605,0,,,,,,,,,,,,,,,
2949694,1501039052237,,,,,,,,,0,1575,0,,,,,,,,,,,,,,,
2949704,1501039052247,,,,,,,,,0,1545,0,,,,,,,,,,,,,,,
2949714,1501039052257,,,,,,,,,0,1500,0,,,,,,,,,,,,,,,
2949724,1501039052267,3.16,,-0.02,-0.02,1.03,-1,-2,2,0,1440,0,,,,,,,,,,,,,,,
2949734,1501039052277,,,,,,,,,0,1590,0,,,,,,,,,,,,,,,
2949744,1501039052287,,,,,,,,,0,1650,0,36.113663,-115.145653,0.0,6.287,2036.1,9,3,1.9,0,0.0,-1,0.0,0.0,0.0,0
2949754,1501039052297,,,,,,,,,0,1635,0,,,,,,,,,,,,,,,
2949764,1501039052307,3.2,,0.01,-0.01,1.02,-1,-2,3,0,1590,0,,,,,,,,,,,,,,,
2949774,1501039052317,,,,,,,,,0,1575,0,,,,,,,,,,,,,,,
2949784,1501039052327,,,,,,,,,0,1545,0,,,,,,,,,,,,,,,
2949794,1501039052337,,,,,,,,,0,1515,0,,,,,,,,,,,,,,,
2949804,1501039052347,3.17,,0.04,-0.01,0.97,-1,-7,3,0,1440,0,,,,,,,,,,,,,,,
2949814,1501039052357,,,,,,,,,0,1590,0,,,,,,,,,,,,,,,
2949824,1501039052367,,,,,,,,,0,1650,0,,,,,,,,,,,,,,,
2949834,1501039052377,,,,,,,,,0,1635,0,,,,,,,,,,,,,,,
2949844,1501039052387,3.18,,0.03,-0.02,0.98,-1,-9,3,0,1575,0,36.113663,-115.145653,0.0,6.287,2036.1,9,3,1.9,0,0.0,-1,0.0,0.0,0.0,0
2949854,1501039052397,,,,,,,,,0,1545,0,,,,,,,,,,,,,,,
2949864,1501039052407,,,,,,,,,0,1545,0,,,,,,,,,,,,,,,
2949874,1501039052417,,,,,,,,,0,1440,0,,,,,,,,,,,,,,,
2949884,1501039052427,3.18,,-0.01,0.0,0.95,-1,-10,2,0,1590,0,,,,,,,,,,,,,,,
2949894,1501039052437,,,,,,,,,0,1650,0,,,,,,,,,,,,,,,
2949904,1501039052447,,,,,,,,,0,1635,0,,,,,,,,,,,,,,,
2949914,1501039052457,,,,,,,,,0,1605,0,,,,,,,,,,,,,,,
2949924,1501039052467,3.17,,0.0,-0.01,0.99,-1,-10,3,0,1575,0,,,,,,,,,,,,,,,
2949934,1501039052477,,,,,,,,,0,1545,0,,,,,,,,,,,,,,,
2949944,1501039052487,,,,,,,,,0,1515,0,36.113663,-115.145653,0.0,6.287,2036.1,9,3,1.9,0,0.0,-1,0.0,0.0,0.0,0
2949954,1501039052497,,,,,,,,,0,1440,0,,,,,,,,,,,,,,,
2949964,1501039052507,3.18,,-0.01,0.02,1.01,-2,-7,4,0,1590,0,,,,,,,,,,,,,,,
2949974,1501039052517,,,,,,,,,0,1665,0,,,,,,,,,,,,,,,
2949984,1501039052527,,,,,,,,,0,1635,0,,,,,,,,,,,,,,,
2949994,1501039052537,,,,,,,,,0,1605,0,,,,,,,,,,,,,,,
2950004,1501039052547,3.18,,0.03,-0.01,1.02,-2,-5,4,0,1575,0,,,,,,,,,,,,,,,
2950014,1501039052557,,,,,,,,,0,1530,0,,,,,,,,,,,,,,,
2950024,1501039052567,,,,,,,,,0,1500,0,,,,,,,,,,,,,,,
2950034,1501039052577,,,,,,,,,0,1425,0,,,,,,,,,,,,,,,
2950044,1501039052587,3.18,4.49,0.12,-0.01,1.15,-2,-3,5,0,1575,0,36.113663,-115.145653,0.0,6.287,2036.1,9,3,1.9,0,0.0,-1,0.0,0.0,0.0,0
2950054,1501039052596,,,,,,,,,0,1635,0,,,,,,,,,,,,,,,
2950064,1501039052606,,,,,,,,,0,1590,0,,,,,,,,,,,,,,,
2950074,1501039052616,,,,,,,,,0,1560,0,,,,,,,,,,,,,,,
2950084,1501039052626,3.19,,0.19,0.01,1.18,-1,-8,3,0,1515,0,,,,,,,,,,,,,,,
2950094,1501039052636,,,,,,,,,0,1470,0,,,,,,,,,,,,,,,
2950104,1501039052646,,,,,,,,,0,1425,0,,,,,,,,,,,,,,,
2950114,1501039052656,,,,,,,,,0,1320,0,,,,,,,,,,,,,,,
2950124,1501039052666,3.17,,0.31,0.0,1.3,-1,-13,4,0,1500,0,,,,,,,,,,,,,,,
2950134,1501039052676,,,,,,,,,0,1575,0,,,,,,,,,,,,,,,
2950144,1501039052686,,,,,,,,,0,1515,0,36.113663,-115.145653,0.0,6.287,2036.1,9,3,1.9,0,0.0,-1,0.0,0.0,0.0,0
2950154,1501039052696,,,,,,,,,0,1455,0,,,,,,,,,,,,,,,
2950164,1501039052706,3.18,,0.39,0.04,1.3,1,-18,4,0,1395,0,,,,,,,,,,,,,,,
2950174,1501039052716,,,,,,,,,0,1335,0,,,,,,,,,,,,,,,
2950184,1501039052726,,,,,,,,,0,1260,0,,,,,,,,,,,,,,,
2950194,1501039052736,,,,,,,,,0,1260,0,,,,,,,,,,,,,,,
2950204,1501039052746,3.08,,0.37,0.04,1.12,5,-19,5,0,1125,0,,,,,,,,,,,,,,,
2950214,1501039052756,,,,,,,,,0,1140,0,,,,,,,,,,,,,,,
2950224,1501039052766,,,,,,,,,0,1140,0,,,,,,,,,,,,,,,
2950234,1501039052776,,,,,,,,,0,1140,0,,,,,,,,,,,,,,,
2950244,1501039052786,3.06,,0.36,0.04,1.06,5,-15,6,0,1080,0,36.113663,-115.145653,0.0,6.287,2036.1,9,3,1.9,0,0.0,-1,0.0,0.0,0.0,0
2950254,1501039052796,,,,,,,,,0,1035,0,,,,,,,,,,,,,,,
2950264,1501039052806,,,,,,,,,0,1035,230,,,,,,,,,,,,,,,
2950274,1501039052816,,,,,,,,,0,1020,230,,,,,,,,,,,,,,,
2950284,1501039052826,3.07,,0.35,0.02,1.03,3,-13,5,0,975,230,,,,,,,,,,,,,,,
2950294,1501039052836,,,,,,,,,0,975,230,,,,,,,,,,,,,,,
2950304,1501039052846,,,,,,,,,0,945,230,,,,,,,,,,,,,,,
2950314,1501039052856,,,,,,,,,0,945,230,,,,,,,,,,,,,,,
2950324,1501039052866,3.11,,0.27,0.03,0.99,3,-7,5,0,810,230,,,,,,,,,,,,,,,
2950334,1501039052876,,,,,,,,,0,885,230,,,,,,,,,,,,,,,
2950344,1501039052886,,,,,,,,,0,885,230,36.113663,-115.145653,0.0,6.287,2036.1,9,3,1.9,0,0.0,-1,0.0,0.0,0.0,0
2950354,1501039052896,,,,,,,,,0,915,10000000,,,,,,,,,,,,,,,
2950364,1501039052906,3.12,,0.22,0.02,1.01,2,-2,4,0,915,0,,,,,,,,,,,,,,,
2950374,1501039052916,,,,,,,,,0,900,0,,,,,,,,,,,,,,,
2950384,1501039052926,,,,,,,,,0,900,0,,,,,,,,,,,,,,,
2950394,1501039052936,,,,,,,,,0,900,0,,,,,,,,,,,,,,,
2950404,1501039052946,3.14,,0.19,0.01,1.01,2,2,3,0,900,0,,,,,,,,,,,,,,,
2950414,1501039052956,,,,,,,,,0,900,0,,,,,,,,,,,,,,,
2950424,1501039052966,,,,,,,,,0,885,0,,,,,,,,,,,,,,,
2950434,1501039052976,,,,,,,,,0,885,0,,,,,,,,,,,,,,,
2950444,1501039052986,3.16,,0.15,-0.03,1.04,2,6,1,0,885,0,36.113663,-115.145653,0.0,6.287,2036.1,9,3,1.9,0,0.0,-1,0.0,0.0,0.0,0
2950454,1501039052996,,,,,,,,,0,765,0,,,,,,,,,,,,,,,
2950464,1501039053000,,,,,,,,,0,765,0,,,,,,,,,,,,,,,
2950474,1501039053010,,,,,,,,,0,930,0,,,,,,,,,,,,,,,
2950484,1501039053020,3.16,,0.14,-0.01,1.07,1,8,1,0,1065,0,,,,,,,,,,,,,,,
2950494,1501039053030,,,,,,,,,0,1065,0,,,,,,,,,,,,,,,
2950504,1501039053040,,,,,,,,,0,1065,0,,,,,,,,,,,,,,,
2950514,1501039053050,,,,,,,,,0,1065,0,,,,,,,,,,,,,,,
2950524,1501039053060,3.06,,0.13,-0.04,1.07,1,7,1,0,1065,0,,,,,,,,,,,,,,,
2950534,1501039053070,,,,,,,,,0,1065,0,,,,,,,,,,,,,,,
2950544,1501039053080,,,,,,,,,0,1065,0,36.113663,-115.145653,1.03,6.287,2037.2,9,3,1.9,0,0.0,-1,0.0,0.0,0.0,0
2950554,1501039053096,,,,,,,,,0,1050,0,,,,,,,,,,,,,,,
2950564,1501039053106,3.11,,0.09,-0.03,1.11,1,7,0,0,1050,0,,,,,,,,,,,,,,,
2950574,1501039053116,,,,,,,,,0,960,190,,,,,,,,,,,,,,,
2950584,1501039053126,,,,,,,,,0,1275,190,,,,,,,,,,,,,,,
2950594,1501039053136,,,,,,,,,0,1440,190,,,,,,,,,,,,,,,
2950604,1501039053146,3.2,,0.08,-0.04,1.12,1,4,1,0,1440,190,,,,,,,,,,,,,,,
2950614,1501039053156,,,,,,,,,0,1425,190,,,,,,,,,,,,,,,
2950624,1501039053166,,,,,,,,,0,1425,190,,,,,,,,,,,,,,,
2950634,1501039053176,,,,,,,,,0,1425,190,,,,,,,,,,,,,,,
2950644,1501039053186,3.24,,0.09,-0.06,1.15,1,1,1,0,1410,190,36.113663,-115.145653,1.43,6.287,2037.3,9,3,1.9,0,0.0,-1,0.0,0.0,0.0,0
2950654,1501039053196,,,,,,,,,0,1350,190,,,,,,,,,,,,,,,
2950664,1501039053206,,,,,,,,,0,1620,190,,,,,,,,,,,,,,,
2950674,1501039053216,,,,,,,,,0,1755,190,,,,,,,,,,,,,,,
2950684,1501039053226,3.2,,0.1,-0.07,1.19,1,-0,0,0,1740,190,,,,,,,,,,,,,,,
2950694,1501039053236,,,,,,,,,0,1740,190,,,,,,,,,,,,,,,
2950704,1501039053246,,,,,,,,,0,1740,10000000,,,,,,,,,,,,,,,
2950714,1501039053256,,,,,,,,,0,1725,0,,,,,,,,,,,,,,,
2950724,1501039053266,3.15,,0.12,-0.03,1.2,-0,-2,2,0,1920,0,,,,,,,,,,,,,,,
2950734,1501039053276,,,,,,,,,0,2010,0,,,,,,,,,,,,,,,
2950744,1501039053286,,,,,,,,,0,2025,0,36.113663,-115.145653,1.92,6.287,2037.4,9,3,1.9,0,0.0,-1,0.0,0.0,0.0,0
2950754,1501039053296,,,,,,,,,0,2010,0,,,,,,,,,,,,,,,
2950764,1501039053300,3.17,,0.1,-0.1,1.18,0,-1,3,0,2010,0,,,,,,,,,,,,,,,
2950774,1501039053310,,,,,,,,,0,1995,0,,,,,,,,,,,,,,,
2950784,1501039053320,,,,,,,,,0,2160,0,,,,,,,,,,,,,,,
2950794,1501039053330,,,,,,,,,0,2250,0,,,,,,,,,,,,,,,
2950804,1501039053340,3.16,,0.06,-0.09,0.98,1,-3,3,0,2235,0,,,,,,,,,,,,,,,
2950814,1501039053350,,,,,,,,,0,2265,0,,,,,,,,,,,,,,,
2950824,1501039053360,,,,,,,,,0,2235,0,,,,,,,,,,,,,,,
2950834,1501039053370,,,,,,,,,0,2190,4760,,,,,,,,,,,,,,,
2950844,1501039053380,3.23,,0.06,-0.09,0.85,0,-5,6,0,2475,4760,36.113663,-115.145653,2.22,6.287,2037.6,9,3,1.9,0,0.0,-1,0.0,0.0,0.0,0
2950854,1501039053398,,,,,,,,,0,2460,4760,,,,,,,,,,,,,,,
2950864,1501039053408,,,,,,,,,0,2460,4760,,,,,,,,,,,,,,,
2950874,1501039053418,,,,,,,,,0,2460,4760,,,,,,,,,,,,,,,
2950884,1501039053428,3.19,,0.03,-0.07,0.65,1,-6,6,0,2595,4760,,,,,,,,,,,,,,,
2950894,1501039053438,,,,,,,,,0,2670,4760,,,,,,,,,,,,,,,
2950904,1501039053448,,,,,,,,,0,2655,4760,,,,,,,,,,,,,,,
2950914,1501039053458,,,,,,,,,0,2655,4760,,,,,,,,,,,,,,,
2950924,1501039053468,3.24,,-0.03,-0.06,0.68,0,-2,6,0,2610,4760,,,,,,,,,,,,,,,
2950934,1501039053478,,,,,,,,,0,2850,4760,,,,,,,,,,,,,,,
2950944,1501039053488,,,,,,,,,0,2850,4760,36.113663,-115.145653,2.36,6.287,2037.7,9,3,1.9,0,0.0,-1,0.0,0.0,0.0,0
2950954,1501039053496,,,,,,,,,0,2850,4760,,,,,,,,,,,,,,,
2950964,1501039053506,3.2,,-0.1,-0.09,0.92,3,2,2,0,2790,0,,,,,,,,,,,,,,,
2950974,1501039053516,,,,,,,,,0,3015,0,,,,,,,,,,,,,,,
2950984,1501039053526,,,,,,,,,0,3000,0,,,,,,,,,,,,,,,
2950994,1501039053536,,,,,,,,,0,3000,0,,,,,,,,,,,,,,,
2951004,1501039053546,3.12,,-0.13,-0.12,1.09,2,4,4,0,2940,0,,,,,,,,,,,,,,,
2951014,1501039053556,,,,,,,,,0,3165,0,,,,,,,,,,,,,,,
2951024,1501039053566,,,,,,,,,0,3135,0,,,,,,,,,,,,,,,
2951034,1501039053576,,,,,,,,,0,3060,0,,,,,,,,,,,,,,,
2951044,1501039053586,3.04,4.5,-0.01,-0.17,1.26,-4,6,5,0,2955,0,36.113663,-115.145668,2.26,6.287,2037.8,9,3,1.9,0,0.0,-1,0.0,0.0,0.0,0
2951054,1501039053596,,,,,,,,,0,3105,230,,,,,,,,,,,,,,,
2951064,1501039053606,,,,,,,,,0,2970,230,,,,,,,,,,,,,,,
2951074,1501039053616,,,,,,,,,0,2865,230,,,,,,,,,,,,,,,
2951084,1501039053626,3.1,,0.23,-0.35,1.29,-2,-10,9,0,2790,230,,,,,,,,,,,,,,,
2951094,1501039053636,,,,,,,,,0,2925,230,,,,,,,,,,,,,,,
2951104,1501039053646,,,,,,,,,0,2895,230,,,,,,,,,,,,,,,
2951114,1501039053656,,,,,,,,,0,2865,150,,,,,,,,,,,,,,,
2951124,1501039053666,3.04,,0.46,-0.45,1.43,-1,-18,5,0,2745,150,,,,,,,,,,,,,,,
2951134,1501039053676,,,,,,,,,0,2760,150,,,,,,,,,,,,,,,
2951144,1501039053686,,,,,,,,,0,2745,150,36.113663,-115.145668,2.31,6.287,2037.9,9,3,1.9,0,0.0,-1,0.0,0.0,0.0,0
2951154,1501039053697,,,,,,,,,0,2670,150,,,,,,,,,,,,,,,
2951164,1501039053707,3.01,,0.64,-0.38,1.43,-2,-26,10,0,2625,150,,,,,,,,,,,,,,,
2951174,1501039053717,,,,,,,,,0,2505,150,,,,,,,,,,,,,,,
2951184,1501039053727,,,,,,,,,0,2700,150,,,,,,,,,,,,,,,
2951194,1501039053737,,,,,,,,,0,2550,150,,,,,,,,,,,,,,,
2951204,1501039053747,3.05,,0.61,-0.32,1.28,-1,-29,10,0,2505,150,,,,,,,,,,,,,,,
2951214,1501039053757,,,,,,,,,0,2400,150,,,,,,,,,,,,,,,
2951224,1501039053767,,,,,,,,,0,2310,150,,,,,,,,,,,,,,,
2951234,1501039053777,,,,,,,,,0,2490,150,,,,,,,,,,,,,,,
2951244,1501039053787,3.04,,0.62,-0.37,1.17,0,-26,9,0,2385,150,36.113663,-115.145668,2.53,6.287,2037.9,9,3,1.9,0,0.0,-1,0.0,0.0,0.0,0
2951254,1501039053797,,,,,,,,,0,2295,130,,,,,,,,,,,,,,,
2951264,1501039053807,,,,,,,,,0,2190,130,,,,,,,,,,,,,,,
2951274,1501039053817,,,,,,,,,0,2085,130,,,,,,,,,,,,,,,
2951284,1501039053827,3.04,,0.61,-0.26,1.06,1,-25,10,0,2280,130,,,,,,,,,,,,,,,
2951294,1501039053837,,,,,,,,,0,2220,130,,,,,,,,,,,,,,,
2951304,1501039053847,,,,,,,,,0,2175,130,,,,,,,,,,,,,,,
2951314,1501039053857,,,,,,,,,0,2055,130,,,,,,,,,,,,,,,
2951324,1501039053867,2.99,,0.57,-0.16,0.78,2,-21,9,0,1980,130,,,,,,,,,,,,,,,
2951334,1501039053877,,,,,,,,,0,1875,130,,,,,,,,,,,,,,,
2951344,1501039053887,,,,,,,,,0,2100,5880,36.113663,-115.145668,3.41,6.287,2038.0,9,3,1.9,0,0.0,-1,0.0,0.0,0.0,0
2951354,1501039053897,,,,,,,,,0,2085,5890,,,,,,,,,,,,,,,
2951364,1501039053907,3.02,,0.52,-0.11,0.69,1,-18,9,0,2025,5890,,,,,,,,,,,,,,,
2951374,1501039053917,,,,,,,,,0,1950,5890,,,,,,,,,,,,,,,
2951384,1501039053927,,,,,,,,,0,1905,5890,,,,,,,,,,,,,,,
2951394,1501039053937,,,,,,,,,0,1830,5890,,,,,,,,,,,,,,,
2951404,1501039053947,3.08,,0.48,-0.13,0.67,1,-14,8,0,2100,5890,,,,,,,,,,,,,,,
2951414,1501039053957,,,,,,,,,0,2085,5890,,,,,,,,,,,,,,,
2951424,1501039053967,,,,,,,,,0,2055,5890,,,,,,,,,,,,,,,
2951434,1501039053977,,,,,,,,,0,2010,1330,,,,,,,,,,,,,,,
2951444,1501039053987,3.09,,0.43,-0.11,0.71,-0,-7,7,0,1995,1330,36.113663,-115.145668,4.82,6.287,2038.2,9,3,1.9,0,0.0,-1,0.0,0.0,0.0,0
2951454,1501039053997,,,,,,,,,0,2100,1330,,,,,,,,,,,,,,,
2951464,1501039053999,,,,,,,,,0,2190,1330,,,,,,,,,,,,,,,
2951474,1501039054009,,,,,,,,,0,2160,1330,,,,,,,,,,,,,,,
2951484,1501039054019,3.11,,0.46,-0.15,0.72,0,-6,4,0,2115,1330,,,,,,,,,,,,,,,
2951494,1501039054029,,,,,,,,,0,2100,1330,,,,,,,,,,,,,,,
2951504,1501039054039,,,,,,,,,0,2010,1330,,,,,,,,,,,,,,,
2951514,1501039054049,,,,,,,,,0,2190,1330,,,,,,,,,,,,,,,
2951524,1501039054059,3.05,,0.43,-0.11,0.88,0,-3,1,0,2250,110,,,,,,,,,,,,,,,
2951534,1501039054069,,,,,,,,,0,2235,110,,,,,,,,,,,,,,,
2951544,1501039054079,,,,,,,,,0,2190,110,36.113663,-115.145668,5.99,6.287,2038.2,9,3,1.1,0,0.0,-1,0.0,0.0,0.0,0
2951554,1501039054095,,,,,,,,,0,2175,110,,,,,,,,,,,,,,,
2951564,1501039054105,3.07,,0.44,-0.11,0.99,-0,-0,1,0,2295,110,,,,,,,,,,,,,,,
2951574,1501039054115,,,,,,,,,0,2340,110,,,,,,,,,,,,,,,
2951584,1501039054125,,,,,,,,,0,2325,110,,,,,,,,,,,,,,,
2951594,1501039054135,,,,,,,,,0,2295,110,,,,,,,,,,,,,,,
2951604,1501039054145,3.13,,0.42,-0.14,1.0,0,2,1,0,2265,120,,,,,,,,,,,,,,,
2951614,1501039054155,,,,,,,,,0,2190,120,,,,,,,,,,,,,,,
2951624,1501039054165,,,,,,,,,0,2445,120,,,,,,,,,,,,,,,
2951634,1501039054175,,,,,,,,,0,2430,120,,,,,,,,,,,,,,,
2951644,1501039054185,3.13,,0.38,-0.1,0.77,-0,-5,2,0,2400,120,36.113663,-115.145676,6.99,6.288,2038.3,9,3,1.1,0,0.0,-1,0.0,0.0,0.0,0
2951654,1501039054197,,,,,,,,,0,2355,120,,,,,,,,,,,,,,,
2951664,1501039054207,,,,,,,,,0,2295,120,,,,,,,,,,,,,,,
2951674,1501039054217,,,,,,,,,0,2535,130,,,,,,,,,,,,,,,
2951684,1501039054227,3.09,,0.21,-0.05,0.84,1,2,2,0,2475,130,,,,,,,,,,,,,,,
2951694,1501039054237,,,,,,,,,0,2475,130,,,,,,,,,,,,,,,
2951704,1501039054247,,,,,,,,,0,2430,130,,,,,,,,,,,,,,,
2951714,1501039054257,,,,,,,,,0,2520,130,,,,,,,,,,,,,,,
2951724,1501039054267,3.17,,0.28,-0.03,0.95,0,-0,3,0,2595,130,,,,,,,,,,,,,,,
2951734,1501039054277,,,,,,,,,0,2550,130,,,,,,,,,,,,,,,
2951744,1501039054287,,,,,,,,,0,2505,140,36.113663,-115.145676,7.54,6.288,2038.2,9,3,1.1,0,0.0,-1,0.0,0.0,0.0,0
2951754,1501039054297,,,,,,,,,0,2490,140,,,,,,,,,,,,,,,
2951764,1501039054307,3.1,,0.27,-0.07,0.87,1,-5,4,0,2565,140,,,,,,,,,,,,,,,
2951774,1501039054317,,,,,,,,,0,2625,140,,,,,,,,,,,,,,,
2951784,1501039054327,,,,,,,,,0,2595,140,,,,,,,,,,,,,,,
2951794,1501039054337,,,,,,,,,0,2550,140,,,,,,,,,,,,,,,
2951804,1501039054347,3.12,,0.21,-0.04,0.74,1,-0,5,0,2475,140,,,,,,,,,,,,,,,
2951814,1501039054357,,,,,,,,,0,2685,140,,,,,,,,,,,,,,,
2951824,1501039054367,,,,,,,,,0,2670,140,,,,,,,,,,,,,,,
2951834,1501039054377,,,,,,,,,0,2610,140,,,,,,,,,,,,,,,
2951844,1501039054387,3.16,,0.29,-0.05,0.83,1,-1,1,0,2565,140,36.113663,-115.145676,8.04,6.288,2038.5,9,3,2.3,0,0.0,-1,0.0,0.0,0.0,0
2951854,1501039054397,,,,,,,,,0,2625,140,,,,,,,,,,,,,,,
2951864,1501039054407,,,,,,,,,0,2715,140,,,,,,,,,,,,,,,
2951874,1501039054417,,,,,,,,,0,2655,150,,,,,,,,,,,,,,,
2951884,1501039054427,3.15,,0.28,-0.03,0.7,1,-7,2,0,2625,150,,,,,,,,,,,,,,,
2951894,1501039054437,,,,,,,,,0,2535,150,,,,,,,,,,,,,,,
2951904,1501039054447,,,,,,,,,0,2670,150,,,,,,,,,,,,,,,
2951914,1501039054457,,,,,,,,,0,2730,150,,,,,,,,,,,,,,,
2951924,1501039054467,3.16,,0.27,0.01,0.57,1,-9,2,0,2670,150,,,,,,,,,,,,,,,
2951934,1501039054477,,,,,,,,,0,2625,150,,,,,,,,,,,,,,,
2951944,1501039054487,,,,,,,,,0,2685,150,36.113663,-115.145691,8.25,6.288,2038.7,9,3,2.3,0,0.0,-1,0.0,0.0,0.0,0
2951954,1501039054497,,,,,,,,,0,2775,150,,,,,,,,,,,,,,,
2951964,1501039054507,3.24,,0.21,0.1,0.53,2,-5,1,0,2715,150,,,,,,,,,,,,,,,
2951974,1501039054517,,,,,,,,,0,2685,150,,,,,,,,,,,,,,,
2951984,1501039054527,,,,,,,,,0,2595,150,,,,,,,,,,,,,,,
2951994,1501039054537,,,,,,,,,0,2805,150,,,,,,,,,,,,,,,
2952004,1501039054547,3.24,,0.17,0.19,0.79,2,0,-1,0,2760,160,,,,,,,,,,,,,,,
2952014,1501039054557,,,,,,,,,0,2730,160,,,,,,,,,,,,,,,
2952024,1501039054567,,,,,,,,,0,2670,160,,,,,,,,,,,,,,,
2952034,1501039054577,,,,,,,,,0,2730,160,,,,,,,,,,,,,,,
2952044,1501039054587,3.23,4.51,0.22,0.18,0.87,1,-1,2,0,2775,160,36.113663,-115.145691,9.5,6.288,2038.6,9,3,2.3,0,0.0,-1,0.0,0.0,0.0,0
2952054,1501039054597,,,,,,,,,0,2745,160,,,,,,,,,,,,,,,
2952064,1501039054607,,,,,,,,,0,2715,170,,,,,,,,,,,,,,,
2952074,1501039054617,,,,,,,,,0,2640,170,,,,,,,,,,,,,,,
2952084,1501039054627,3.19,,0.25,0.11,0.8,1,-6,4,0,2805,170,,,,,,,,,,,,,,,
2952094,1501039054637,,,,,,,,,0,2790,170,,,,,,,,,,,,,,,
2952104,1501039054647,,,,,,,,,0,2730,170,,,,,,,,,,,,,,,
2952114,1501039054657,,,,,,,,,0,2655,170,,,,,,,,,,,,,,,
2952124,1501039054667,3.15,,0.3,0.06,0.84,0,-8,4,0,2790,170,,,,,,,,,,,,,,,
2952134,1501039054677,,,,,,,,,0,2820,170,,,,,,,,,,,,,,,
2952144,1501039054687,,,,,,,,,0,2760,170,36.113663,-115.145691,9.78,6.289,2038.9,9,3,2.3,0,0.0,-1,0.0,0.0,0.0,0
2952154,1501039054696,,,,,,,,,0,2715,170,,,,,,,,,,,,,,,
2952164,1501039054706,3.15,,0.29,0.04,0.72,0,-7,3,0,2790,170,,,,,,,,,,,,,,,
2952174,1501039054716,,,,,,,,,0,2820,170,,,,,,,,,,,,,,,
2952184,1501039054726,,,,,,,,,0,2760,170,,,,,,,,,,,,,,,
2952194,1501039054736,,,,,,,,,0,2745,170,,,,,,,,,,,,,,,
2952204,1501039054746,3.23,,0.2,0.03,0.63,-1,-3,2,0,2670,170,,,,,,,,,,,,,,,
2952214,1501039054756,,,,,,,,,0,2820,170,,,,,,,,,,,,,,,
2952224,1501039054766,,,,,,,,,0,2805,170,,,,,,,,,,,,,,,
2952234,1501039054776,,,,,,,,,0,2745,180,,,,,,,,,,,,,,,
2952244,1501039054786,3.19,,0.17,0.04,0.87,1,-1,-2,0,2670,180,36.113663,-115.145706,10.4,6.289,2038.9,9,3,2.3,0,0.0,-1,0.0,0.0,0.0,0
2952254,1501039054798,,,,,,,,,0,2805,180,,,,,,,,,,,,,,,
2952264,1501039054808,,,,,,,,,0,2835,180,,,,,,,,,,,,,,,
2952274,1501039054818,,,,,,,,,0,2790,180,,,,,,,,,,,,,,,
2952284,1501039054828,3.24,,0.21,-0.07,1.07,-2,1,-3,0,2730,180,,,,,,,,,,,,,,,
2952294,1501039054838,,,,,,,,,0,2805,180,,,,,,,,,,,,,,,
2952304,1501039054848,,,,,,,,,0,2835,180,,,,,,,,,,,,,,,
2952314,1501039054858,,,,,,,,,0,2790,180,,,,,,,,,,,,,,,
2952324,1501039054868,3.15,,0.26,0.01,1.1,-4,-1,3,0,2760,180,,,,,,,,,,,,,,,
2952334,1501039054878,,,,,,,,,0,2685,190,,,,,,,,,,,,,,,
2952344,1501039054888,,,,,,,,,0,2835,190,36.113663,-115.145706,10.58,6.289,2039.1,9,3,1.1,0,0.0,-1,0.0,0.0,0.0,0
2952354,1501039054896,,,,,,,,,0,2805,190,,,,,,,,,,,,,,,
2952364,1501039054906,3.15,,0.29,-0.08,1.06,-4,-6,3,0,2775,190,,,,,,,,,,,,,,,
2952374,1501039054916,,,,,,,,,0,2685,190,,,,,,,,,,,,,,,
2952384,1501039054926,,,,,,,,,0,2865,190,,,,,,,,,,,,,,,
2952394,1501039054936,,,,,,,,,0,2835,190,,,,,,,,,,,,,,,
2952404,1501039054946,3.19,,0.31,-0.12,0.89,-6,-8,5,0,2805,190,,,,,,,,,,,,,,,
2952414,1501039054956,,,,,,,,,0,2760,190,,,,,,,,,,,,,,,
2952424,1501039054966,,,,,,,,,0,2820,190,,,,,,,,,,,,,,,
2952434,1501039054976,,,,,,,,,0,2850,200,,,,,,,,,,,,,,,
2952444,1501039054986,3.19,,0.3,-0.07,0.66,-6,-4,4,0,2805,200,36.113663,-115.145714,11.44,6.29,2039.2,9,3,1.1,0,0.0,-1,0.0,0.0,0.0,0
2952454,1501039054996,,,,,,,,,0,2745,200,,,,,,,,,,,,,,,
2952464,1501039055000,,,,,,,,,0,2820,200,,,,,,,,,,,,,,,
2952474,1501039055010,,,,,,,,,0,2835,200,,,,,,,,,,,,,,,
2952484,1501039055020,3.23,,0.19,-0.01,0.62,-4,-4,2,0,2850,200,,,,,,,,,,,,,,,
2952494,1501039055030,,,,,,,,,0,2760,200,,,,,,,,,,,,,,,
2952504,1501039055040,,,,,,,,,0,2715,200,,,,,,,,,,,,,,,
2952514,1501039055050,,,,,,,,,0,2865,200,,,,,,,,,,,,,,,
2952524,1501039055060,3.14,,0.14,0.04,0.77,-2,-1,-4,0,2850,200,,,,,,,,,,,,,,,
2952534,1501039055070,,,,,,,,,0,2775,200,,,,,,,,,,,,,,,
2952544,1501039055080,,,,,,,,,0,2715,200,36.113659,-115.145714,11.69,6.29,2039.2,9,3,1.1,0,0.0,-1,0.0,0.0,0.0,0
2952554,1501039055096,,,,,,,,,0,2835,200,,,,,,,,,,,,,,,
2952564,1501039055106,3.23,,0.11,0.06,1.0,-2,4,-5,0,2850,200,,,,,,,,,,,,,,,
2952574,1501039055116,,,,,,,,,0,2805,200,,,,,,,,,,,,,,,
2952584,1501039055126,,,,,,,,,0,2760,210,,,,,,,,,,,,,,,
2952594,1501039055136,,,,,,,,,0,2820,210,,,,,,,,,,,,,,,
2952604,1501039055146,3.19,,0.15,0.07,1.06,-4,2,0,0,2865,210,,,,,,,,,,,,,,,
2952614,1501039055156,,,,,,,,,0,2805,210,,,,,,,,,,,,,,,
2952624,1501039055166,,,,,,,,,0,2760,210,,,,,,,,,,,,,,,
2952634,1501039055176,,,,,,,,,0,2715,210,,,,,,,,,,,,,,,
2952644,1501039055186,3.16,,0.25,-0.01,0.99,-5,-3,2,0,2895,210,36.113659,-115.145729,12.51,6.29,2039.4,9,3,1.1,0,0.0,-1,0.0,0.0,0.0,0
2952654,1501039055196,,,,,,,,,0,2865,210,,,,,,,,,,,,,,,
2952664,1501039055206,,,,,,,,,0,2790,210,,,,,,,,,,,,,,,
2952674,1501039055216,,,,,,,,,0,2730,210,,,,,,,,,,,,,,,
2952684,1501039055226,3.09,,0.31,-0.06,0.9,-5,-6,2,0,2895,210,,,,,,,,,,,,,,,
2952694,1501039055236,,,,,,,,,0,2865,210,,,,,,,,,,,,,,,
2952704,1501039055246,,,,,,,,,0,2805,210,,,,,,,,,,,,,,,
2952714,1501039055256,,,,,,,,,0,2715,220,,,,,,,,,,,,,,,
2952724,1501039055266,3.11,,0.35,-0.13,0.85,-7,-7,5,0,2850,220,,,,,,,,,,,,,,,
2952734,1501039055276,,,,,,,,,0,2865,220,,,,,,,,,,,,,,,
2952744,1501039055286,,,,,,,,,0,2820,220,36.113659,-115.145729,12.93,6.291,2039.3,9,3,1.1,0,0.0,-1,0.0,0.0,0.0,0
2952754,1501039055296,,,,,,,,,0,2775,220,,,,,,,,,,,,,,,
2952764,1501039055306,3.13,,0.32,-0.12,0.72,-6,-6,5,0,2835,220,,,,,,,,,,,,,,,
2952774,1501039055316,,,,,,,,,0,2865,220,,,,,,,,,,,,,,,
2952784,1501039055326,,,,,,,,,0,2805,220,,,,,,,,,,,,,,,
2952794,1501039055336,,,,,,,,,0,2760,220,,,,,,,,,,,,,,,
2952804,1501039055346,3.15,,0.26,-0.02,0.62,-5,-2,4,0,2835,220,,,,,,,,,,,,,,,
2952814,1501039055356,,,,,,,,,0,2895,220,,,,,,,,,,,,,,,
2952824,1501039055366,,,,,,,,,0,2850,220,,,,,,,,,,,,,,,
2952834,1501039055376,,,,,,,,,0,2805,220,,,,,,,,,,,,,,,
2952844,1501039055386,3.15,,0.23,0.06,0.72,-4,0,-0,0,2715,220,36.113659,-115.145744,13.53,6.291,2039.4,9,3,1.1,0,0.0,-1,0.0,0.0,0.0,0
2952854,1501039055398,,,,,,,,,0,2880,230,,,,,,,,,,,,,,,
2952864,1501039055408,,,,,,,,,0,2850,230,,,,,,,,,,,,,,,
2952874,1501039055418,,,,,,,,,0,2775,230,,,,,,,,,,,,,,,
2952884,1501039055428,3.1,,0.22,0.01,0.91,-1,1,-6,0,2700,230,,,,,,,,,,,,,,,
2952894,1501039055438,,,,,,,,,0,2850,230,,,,,,,,,,,,,,,
2952904,1501039055448,,,,,,,,,0,2865,230,,,,,,,,,,,,,,,
2952914,1501039055458,,,,,,,,,0,2820,230,,,,,,,,,,,,,,,
2952924,1501039055468,3.19,,0.21,-0.01,1.07,-4,1,-2,0,2760,230,,,,,,,,,,,,,,,
2952934,1501039055478,,,,,,,,,0,2850,230,,,,,,,,,,,,,,,
2952944,1501039055488,,,,,,,,,0,2880,230,36.113659,-115.145744,13.84,6.291,2039.4,9,3,1.1,0,0.0,-1,0.0,0.0,0.0,0
2952954,1501039055496,,,,,,,,,0,2820,230,,,,,,,,,,,,,,,
2952964,1501039055506,3.11,,0.24,-0.03,1.05,-5,-2,4,0,2775,230,,,,,,,,,,,,,,,
2952974,1501039055516,,,,,,,,,0,2835,240,,,,,,,,,,,,,,,
2952984,1501039055526,,,,,,,,,0,2910,240,,,,,,,,,,,,,,,
2952994,1501039055536,,,,,,,,,0,2865,240,,,,,,,,,,,,,,,
2953004,1501039055546,3.19,,0.3,-0.07,1.06,-4,-6,6,0,2775,240,,,,,,,,,,,,,,,
2953014,1501039055556,,,,,,,,,0,2715,240,,,,,,,,,,,,,,,
2953024,1501039055566,,,,,,,,,0,2880,240,,,,,,,,,,,,,,,
2953034,1501039055576,,,,,,,,,0,2835,240,,,,,,,,,,,,,,,
2953044,1501039055586,3.13,4.49,0.34,-0.09,0.99,-5,-10,8,0,2775,240,36.113659,-115.145752,14.34,6.292,2039.4,9,3,1.1,0,0.0,-1,0.0,0.0,0.0,0
2953054,1501039055595,,,,,,,,,0,2700,240,,,,,,,,,,,,,,,
2953064,1501039055605,,,,,,,,,0,2835,240,,,,,,,,,,,,,,,
2953074,1501039055615,,,,,,,,,0,2865,240,,,,,,,,,,,,,,,
2953084,1501039055625,3.2,,0.31,-0.09,0.8,-6,-11,10,0,2805,240,,,,,,,,,,,,,,,
2953094,1501039055635,,,,,,,,,0,2760,240,,,,,,,,,,,,,,,
2953104,1501039055645,,,,,,,,,0,2820,240,,,,,,,,,,,,,,,
2953114,1501039055655,,,,,,,,,0,2865,240,,,,,,,,,,,,,,,
2953124,1501039055665,3.2,,0.3,-0.08,0.65,-4,-10,9,0,2790,240,,,,,,,,,,,,,,,
2953134,1501039055675,,,,,,,,,0,2745,250,,,,,,,,,,,,,,,
2953144,1501039055685,,,,,,,,,0,2685,250,36.113659,-115.145752,14.72,6.292,2039.4,9,3,1.1,0,0.0,-1,0.0,0.0,0.0,0
2953154,1501039055697,,,,,,,,,0,2850,250,,,,,,,,,,,,,,,
2953164,1501039055707,3.17,,0.22,0.05,0.75,-1,-7,7,0,2820,250,,,,,,,,,,,,,,,
2953174,1501039055717,,,,,,,,,0,2745,250,,,,,,,,,,,,,,,
2953184,1501039055727,,,,,,,,,0,2685,250,,,,,,,,,,,,,,,
2953194,1501039055737,,,,,,,,,0,2865,250,,,,,,,,,,,,,,,
2953204,1501039055747,3.21,,0.23,0.08,0.98,1,-5,-0,0,2820,250,,,,,,,,,,,,,,,
2953214,1501039055757,,,,,,,,,0,2790,260,,,,,,,,,,,,,,,
2953224,1501039055767,,,,,,,,,0,2730,260,,,,,,,,,,,,,,,
2953234,1501039055777,,,,,,,,,0,2820,260,,,,,,,,,,,,,,,
2953244,1501039055787,3.16,,0.19,0.12,1.16,0,-1,2,0,2835,260,36.113659,-115.145767,14.97,6.293,2039.9,9,3,1.1,0,0.0,-1,0.0,0.0,0.0,0
2953254,1501039055793,,,,,,,,,0,2790,250,,,,,,,,,,,,,,,
2953264,1501039055803,,,,,,,,,0,2715,250,,,,,,,,,,,,,,,
2953274,1501039055813,,,,,,,,,0,2805,250,,,,,,,,,,,,,,,
2953284,1501039055823,3.21,,0.25,0.11,1.1,0,-5,2,0,2835,250,,,,,,,,,,,,,,,
2953294,1501039055833,,,,,,,,,0,2805,250,,,,,,,,,,,,,,,
2953304,1501039055843,,,,,,,,,0,2745,250,,,,,,,,,,,,,,,
2953314,1501039055853,,,,,,,,,0,2655,250,,,,,,,,,,,,,,,
2953324,1501039055863,3.16,,0.27,0.01,0.94,0,-9,5,0,2850,250,,,,,,,,,,,,,,,
2953334,1501039055873,,,,,,,,,0,2790,260,,,,,,,,,,,,,,,
2953344,1501039055883,,,,,,,,,0,2745,260,36.113663,-115.145767,15.16,6.293,2040.5,9,3,1.1,0,0.0,-1,0.0,0.0,0.0,0
2953354,1501039055897,,,,,,,,,0,2715,260,,,,,,,,,,,,,,,
2953364,1501039055907,3.12,,0.3,-0.04,0.82,-0,-10,6,0,2790,260,,,,,,,,,,,,,,,
2953374,1501039055917,,,,,,,,,0,2820,260,,,,,,,,,,,,,,,
2953384,1501039055927,,,,,,,,,0,2775,260,,,,,,,,,,,,,,,
2953394,1501039055937,,,,,,,,,0,2715,260,,,,,,,,,,,,,,,
2953404,1501039055947,3.22,,0.29,-0.06,0.7,1,-7,4,0,2820,260,,,,,,,,,,,,,,,
2953414,1501039055957,,,,,,,,,0,2820,260,,,,,,,,,,,,,,,
2953424,1501039055967,,,,,,,,,0,2820,260,,,,,,,,,,,,,,,
2953434,1501039055977,,,,,,,,,0,2745,260,,,,,,,,,,,,,,,
2953444,1501039055987,3.24,,0.19,0.04,0.73,2,-6,4,0,2685,270,36.113663,-115.145782,15.81,6.293,2040.9,9,3,1.1,0,0.0,-1,0.0,0.0,0.0,0
2953454,1501039055997,,,,,,,,,0,2835,270,,,,,,,,,,,,,,,
2953464,1501039055999,,,,,,,,,0,2805,270,,,,,,,,,,,,,,,
2953474,1501039056009,,,,,,,,,0,2745,270,,,,,,,,,,,,,,,
2953484,1501039056019,3.18,,0.19,0.02,0.97,5,-3,-1,0,2670,270,,,,,,,,,,,,,,,
2953494,1501039056029,,,,,,,,,0,2820,270,,,,,,,,,,,,,,,
2953504,1501039056039,,,,,,,,,0,2835,270,,,,,,,,,,,,,,,
2953514,1501039056049,,,,,,,,,0,2775,260,,,,,,,,,,,,,,,
2953524,1501039056059,3.23,,0.13,0.07,1.17,2,0,0,0,2715,260,,,,,,,,,,,,,,,
2953534,1501039056069,,,,,,,,,0,2790,260,,,,,,,,,,,,,,,
2953544,1501039056079,,,,,,,,,0,2835,260,36.113663,-115.14579,16.52,6.294,2041.0,9,3,2.2,0,0.0,-1,0.0,0.0,0.0,0
2953554,1501039056095,,,,,,,,,0,2775,270,,,,,,,,,,,,,,,
2953564,1501039056105,3.2,,0.16,0.09,1.19,0,-1,5,0,2760,270,,,,,,,,,,,,,,,
2953574,1501039056115,,,,,,,,,0,2655,270,,,,,,,,,,,,,,,
2953584,1501039056125,,,,,,,,,0,2850,270,,,,,,,,,,,,,,,
2953594,1501039056135,,,,,,,,,0,2790,270,,,,,,,,,,,,,,,
2953604,1501039056145,3.2,,0.19,0.04,1.12,0,-5,4,0,2760,270,,,,,,,,,,,,,,,
2953614,1501039056155,,,,,,,,,0,2670,270,,,,,,,,,,,,,,,
2953624,1501039056165,,,,,,,,,0,2865,270,,,,,,,,,,,,,,,
2953634,1501039056175,,,,,,,,,0,2850,270,,,,,,,,,,,,,,,
2953644,1501039056185,3.23,,0.27,-0.05,0.91,-1,-9,5,0,2790,270,36.113663,-115.14579,16.8,6.294,2041.2,9,3,2.2,0,0.0,-1,0.0,0.0,0.0,0
2953654,1501039056197,,,,,,,,,0,2745,270,,,,,,,,,,,,,,,
2953664,1501039056207,,,,,,,,,0,2805,280,,,,,,,,,,,,,,,
2953674,1501039056217,,,,,,,,,0,2835,280,,,,,,,,,,,,,,,
2953684,1501039056227,3.2,,0.27,-0.13,0.57,-1,-7,6,0,2790,280,,,,,,,,,,,,,,,
2953694,1501039056237,,,,,,,,,0,2730,280,,,,,,,,,,,,,,,
2953704,1501039056247,,,,,,,,,0,2685,280,,,,,,,,,,,,,,,
2953714,1501039056257,,,,,,,,,0,2850,280,,,,,,,,,,,,,,,
2953724,1501039056267,3.14,,0.19,-0.03,0.63,0,-5,3,0,2820,280,,,,,,,,,,,,,,,
2953734,1501039056277,,,,,,,,,0,2760,280,,,,,,,,,,,,,,,
2953744,1501039056287,,,,,,,,,0,2685,280,36.113663,-115.145805,17.16,6.295,2041.3,9,3,2.2,0,0.0,-1,0.0,0.0,0.0,0
2953754,1501039056297,,,,,,,,,0,2850,280,,,,,,,,,,,,,,,
2953764,1501039056307,3.2,,0.16,0.05,0.83,2,-2,-3,0,2805,280,,,,,,,,,,,,,,,
2953774,1501039056317,,,,,,,,,0,2790,280,,,,,,,,,,,,,,,
2953784,1501039056327,,,,,,,,,0,2745,280,,,,,,,,,,,,,,,
2953794,1501039056337,,,,,,,,,0,2835,280,,,,,,,,,,,,,,,
2953804,1501039056347,3.25,,0.11,0.04,1.02,-0,2,1,0,2850,280,,,,,,,,,,,,,,,
2953814,1501039056357,,,,,,,,,0,2790,280,,,,,,,,,,,,,,,
2953824,1501039056367,,,,,,,,,0,2745,280,,,,,,,,,,,,,,,
2953834,1501039056377,,,,,,,,,0,2820,280,,,,,,,,,,,,,,,
2953844,1501039056387,3.22,,0.15,0.07,1.01,-1,0,5,0,2850,280,36.113663,-115.145821,17.69,6.295,2041.3,9,3,2.2,0,0.0,-1,0.0,0.0,0.0,0
2953854,1501039056397,,,,,,,,,0,2835,280,,,,,,,,,,,,,,,
2953864,1501039056407,,,,,,,,,0,2790,280,,,,,,,,,,,,,,,
2953874,1501039056417,,,,,,,,,0,2700,290,,,,,,,,,,,,,,,
2953884,1501039056427,3.23,,0.21,-0.02,0.9,-1,-4,6,0,2895,290,,,,,,,,,,,,,,,
2953894,1501039056437,,,,,,,,,0,2835,290,,,,,,,,,,,,,,,
2953904,1501039056447,,,,,,,,,0,2790,290,,,,,,,,,,,,,,,
2953914,1501039056457,,,,,,,,,0,2700,290,,,,,,,,,,,,,,,
2953924,1501039056467,3.14,,0.26,-0.1,0.9,-2,-9,8,0,2880,290,,,,,,,,,,,,,,,
2953934,1501039056477,,,,,,,,,0,2865,290,,,,,,,,,,,,,,,
2953944,1501039056487,,,,,,,,,0,2805,280,36.113663,-115.145821,17.85,6.296,2041.3,9,3,2.2,0,0.0,-1,0.0,0.0,0.0,0
2953954,1501039056497,,,,,,,,,0,2760,280,,,,,,,,,,,,,,,
2953964,1501039056507,3.13,,0.28,-0.1,0.63,-1,-7,7,0,2820,280,,,,,,,,,,,,,,,
2953974,1501039056517,,,,,,,,,0,2865,290,,,,,,,,,,,,,,,
2953984,1501039056527,,,,,,,,,0,2805,290,,,,,,,,,,,,,,,
2953994,1501039056537,,,,,,,,,0,2775,290,,,,,,,,,,,,,,,
2954004,1501039056547,3.08,,0.19,-0.03,0.57,-0,-4,6,0,2820,290,,,,,,,,,,,,,,,
2954014,1501039056557,,,,,,,,,0,2895,290,,,,,,,,,,,,,,,
2954024,1501039056567,,,,,,,,,0,2835,290,,,,,,,,,,,,,,,
2954034,1501039056577,,,,,,,,,0,2805,290,,,,,,,,,,,,,,,
2954044,1501039056587,3.19,4.47,0.16,0.06,0.62,2,-3,-2,0,2730,300,36.113659,-115.145828,18.0,6.296,2041.5,9,3,2.2,0,0.0,-1,0.0,0.0,0.0,0
2954054,1501039056596,,,,,,,,,0,2895,300,,,,,,,,,,,,,,,
2954064,1501039056606,,,,,,,,,0,2865,300,,,,,,,,,,,,,,,
2954074,1501039056616,,,,,,,,,0,2805,300,,,,,,,,,,,,,,,
2954084,1501039056626,3.14,,0.17,-0.03,0.89,5,-2,-8,0,2730,300,,,,,,,,,,,,,,,
2954094,1501039056636,,,,,,,,,0,2910,300,,,,,,,,,,,,,,,
2954104,1501039056646,,,,,,,,,0,2865,300,,,,,,,,,,,,,,,
2954114,1501039056656,,,,,,,,,0,2820,300,,,,,,,,,,,,,,,
2954124,1501039056666,3.15,,0.15,-0.05,1.04,2,1,-7,0,2775,300,,,,,,,,,,,,,,,
2954134,1501039056676,,,,,,,,,0,2835,300,,,,,,,,,,,,,,,
2954144,1501039056686,,,,,,,,,0,2880,290,36.113659,-115.145844,18.47,6.297,2041.5,9,3,2.2,0,0.0,-1,0.0,0.0,0.0,0
2954154,1501039056696,,,,,,,,,0,2820,290,,,,,,,,,,,,,,,
2954164,1501039056706,3.16,,0.16,-0.03,1.03,-0,0,-2,0,2775,290,,,,,,,,,,,,,,,
2954174,1501039056716,,,,,,,,,0,2850,290,,,,,,,,,,,,,,,
2954184,1501039056726,,,,,,,,,0,2880,290,,,,,,,,,,,,,,,
2954194,1501039056736,,,,,,,,,0,2850,290,,,,,,,,,,,,,,,
2954204,1501039056746,3.14,,0.18,-0.06,1.05,1,-3,1,0,2805,300,,,,,,,,,,,,,,,
2954214,1501039056756,,,,,,,,,0,2730,300,,,,,,,,,,,,,,,
2954224,1501039056766,,,,,,,,,0,2895,300,,,,,,,,,,,,,,,
2954234,1501039056776,,,,,,,,,0,2865,300,,,,,,,,,,,,,,,
2954244,1501039056786,3.23,,0.22,-0.12,0.94,0,-8,0,0,2820,300,36.113659,-115.145844,18.6,6.297,2041.6,9,3,2.2,0,0.0,-1,0.0,0.0,0.0,0
2954254,1501039056796,,,,,,,,,0,2730,300,,,,,,,,,,,,,,,
2954264,1501039056806,,,,,,,,,0,2910,300,,,,,,,,,,,,,,,
2954274,1501039056816,,,,,,,,,0,2865,310,,,,,,,,,,,,,,,
2954284,1501039056826,3.2,,0.24,-0.14,0.89,-2,-9,3,0,2850,310,,,,,,,,,,,,,,,
2954294,1501039056836,,,,,,,,,0,2790,310,,,,,,,,,,,,,,,
2954304,1501039056846,,,,,,,,,0,2865,300,,,,,,,,,,,,,,,
2954314,1501039056856,,,,,,,,,0,2895,300,,,,,,,,,,,,,,,
2954324,1501039056866,3.22,,0.23,-0.17,0.75,-2,-6,5,0,2835,300,,,,,,,,,,,,,,,
2954334,1501039056876,,,,,,,,,0,2790,300,,,,,,,,,,,,,,,
2954344,1501039056886,,,,,,,,,0,2865,300,36.113659,-115.145859,18.92,6.298,2041.7,9,3,2.2,0,0.0,-1,0.0,0.0,0.0,0
2954354,1501039056896,,,,,,,,,0,2895,300,,,,,,,,,,,,,,,
2954364,1501039056906,3.17,,0.14,-0.07,0.67,0,-7,4,0,2850,300,,,,,,,,,,,,,,,
2954374,1501039056916,,,,,,,,,0,2835,310,,,,,,,,,,,,,,,
2954384,1501039056926,,,,,,,,,0,2745,310,,,,,,,,,,,,,,,
2954394,1501039056936,,,,,,,,,0,2910,310,,,,,,,,,,,,,,,
2954404,1501039056946,3.18,,0.12,-0.02,0.71,2,-5,-2,0,2880,300,,,,,,,,,,,,,,,
2954414,1501039056956,,,,,,,,,0,2820,300,,,,,,,,,,,,,,,
2954424,1501039056966,,,,,,,,,0,2760,300,,,,,,,,,,,,,,,
2954434,1501039056976,,,,,,,,,0,2940,310,,,,,,,,,,,,,,,
2954444,1501039056986,3.22,,0.06,0.02,0.92,3,-2,-5,0,2910,310,36.113659,-115.145866,19.33,6.298,2041.7,9,3,2.2,0,0.0,-1,0.0,0.0,0.0,0
2954454,1501039056996,,,,,,,,,0,2865,310,,,,,,,,,,,,,,,
2954464,1501039057000,,,,,,,,,0,2790,310,,,,,,,,,,,,,,,
2954474,1501039057010,,,,,,,,,0,2940,310,,,,,,,,,,,,,,,
2954484,1501039057020,3.21,,0.06,-0.06,1.13,2,0,-8,0,2925,310,,,,,,,,,,,,,,,
2954494,1501039057030,,,,,,,,,0,2850,310,,,,,,,,,,,,,,,
2954504,1501039057040,,,,,,,,,0,2820,310,,,,,,,,,,,,,,,
2954514,1501039057050,,,,,,,,,0,2910,310,,,,,,,,,,,,,,,
2954524,1501039057060,3.24,,0.03,-0.08,1.24,0,2,-3,0,2940,310,,,,,,,,,,,,,,,
2954534,1501039057070,,,,,,,,,0,2880,310,,,,,,,,,,,,,,,
2954544,1501039057080,,,,,,,,,0,2835,310,36.113659,-115.145882,19.45,6.299,2042.0,9,3,1.9,0,0.0,-1,0.0,0.0,0.0,0
2954554,1501039057094,,,,,,,,,0,2910,310,,,,,,,,,,,,,,,
2954564,1501039057104,3.24,,0.02,-0.1,1.36,-1,2,1,0,2940,310,,,,,,,,,,,,,,,
2954574,1501039057114,,,,,,,,,0,2895,310,,,,,,,,,,,,,,,
2954584,1501039057124,,,,,,,,,0,2835,310,,,,,,,,,,,,,,,
2954594,1501039057134,,,,,,,,,0,2940,310,,,,,,,,,,,,,,,
2954604,1501039057144,3.2,,0.12,-0.1,1.34,-1,-0,3,0,2955,310,,,,,,,,,,,,,,,
2954614,1501039057154,,,,,,,,,0,2925,310,,,,,,,,,,,,,,,
2954624,1501039057164,,,,,,,,,0,2865,320,,,,,,,,,,,,,,,
2954634,1501039057174,,,,,,,,,0,2940,320,,,,,,,,,,,,,,,
2954644,1501039057184,3.12,,0.2,-0.16,1.18,-0,-4,5,0,2985,320,36.113659,-115.145882,19.75,6.299,2042.1,9,3,1.9,0,0.0,-1,0.0,0.0,0.0,0
2954654,1501039057196,,,,,,,,,0,2940,320,,,,,,,,,,,,,,,
2954664,1501039057206,,,,,,,,,0,2910,320,,,,,,,,,,,,,,,
2954674,1501039057216,,,,,,,,,0,2835,320,,,,,,,,,,,,,,,
2954684,1501039057226,3.17,,0.29,-0.2,1.16,-1,-7,5,0,2970,320,,,,,,,,,,,,,,,
2954694,1501039057236,,,,,,,,,0,2940,320,,,,,,,,,,,,,,,
2954704,1501039057246,,,,,,,,,0,2910,320,,,,,,,,,,,,,,,
2954714,1501039057256,,,,,,,,,0,2820,320,,,,,,,,,,,,,,,
2954724,1501039057266,3.17,,0.31,-0.18,1.05,-2,-8,5,0,3000,320,,,,,,,,,,,,,,,
2954734,1501039057276,,,,,,,,,0,2955,320,,,,,,,,,,,,,,,
2954744,1501039057286,,,,,,,,,0,2880,320,36.113659,-115.145897,19.89,6.3,2042.3,9,3,1.9,0,0.0,-1,0.0,0.0,0.0,0
2954754,1501039057296,,,,,,,,,0,2820,320,,,,,,,,,,,,,,,
2954764,1501039057306,3.13,,0.34,-0.21,0.86,-3,-11,7,0,2985,320,,,,,,,,,,,,,,,
2954774,1501039057316,,,,,,,,,0,2970,320,,,,,,,,,,,,,,,
2954784,1501039057326,,,,,,,,,0,2880,320,,,,,,,,,,,,,,,
2954794,1501039057336,,,,,,,,,0,2820,320,,,,,,,,,,,,,,,
2954804,1501039057346,3.09,,0.28,-0.24,0.68,-4,-9,8,0,2985,330,,,,,,,,,,,,,,,
2954814,1501039057356,,,,,,,,,0,2955,330,,,,,,,,,,,,,,,
2954824,1501039057366,,,,,,,,,0,2910,330,,,,,,,,,,,,,,,
2954834,1501039057376,,,,,,,,,0,2835,330,,,,,,,,,,,,,,,
2954844,1501039057386,3.11,,0.26,-0.22,0.64,-6,-8,7,0,3000,330,36.113655,-115.145912,20.24,6.301,2042.3,9,3,1.9,0,0.0,-1,0.0,0.0,0.0,0
2954854,1501039057398,,,,,,,,,0,2970,330,,,,,,,,,,,,,,,
2954864,1501039057408,,,,,,,,,0,2895,320,,,,,,,,,,,,,,,
2954874,1501039057418,,,,,,,,,0,2865,320,,,,,,,,,,,,,,,
2954884,1501039057428,3.15,,0.25,-0.21,0.48,-6,-6,5,0,2970,320,,,,,,,,,,,,,,,
2954894,1501039057438,,,,,,,,,0,2985,320,,,,,,,,,,,,,,,
2954904,1501039057448,,,,,,,,,0,2940,320,,,,,,,,,,,,,,,
2954914,1501039057458,,,,,,,,,0,2880,320,,,,,,,,,,,,,,,
2954924,1501039057468,3.2,,0.2,-0.12,0.35,-6,-3,3,0,2970,320,,,,,,,,,,,,,,,
2954934,1501039057478,,,,,,,,,0,2955,320,,,,,,,,,,,,,,,
2954944,1501039057488,,,,,,,,,0,2970,320,36.113655,-115.14592,20.61,6.301,2042.3,9,3,1.9,0,0.0,-1,0.0,0.0,0.0,0
2954954,1501039057498,,,,,,,,,0,2880,330,,,,,,,,,,,,,,,
2954964,1501039057508,3.22,,0.11,-0.06,0.06,-5,-0,0,0,3000,330,,,,,,,,,,,,,,,
2954974,1501039057518,,,,,,,,,0,3000,330,,,,,,,,,,,,,,,
2954984,1501039057528,,,,,,,,,0,2955,330,,,,,,,,,,,,,,,
2954994,1501039057538,,,,,,,,,0,2910,330,,,,,,,,,,,,,,,
2955004,1501039057548,3.17,,0.07,0.06,0.02,-3,-2,-1,0,3000,330,,,,,,,,,,,,,,,
2955014,1501039057558,,,,,,,,,0,3000,340,,,,,,,,,,,,,,,
2955024,1501039057568,,,,,,,,,0,3000,340,,,,,,,,,,,,,,,
2955034,1501039057578,,,,,,,,,0,2895,340,,,,,,,,,,,,,,,
2955044,1501039057588,3.27,4.49,0.02,0.21,-0.06,-1,-4,1,0,2985,330,36.113655,-115.145935,20.87,6.302,2042.4,9,3,1.9,0,0.0,-1,0.0,0.0,0.0,0
2955054,1501039057597,,,,,,,,,0,3000,330,,,,,,,,,,,,,,,
2955064,1501039057607,,,,,,,,,0,2955,330,,,,,,,,,,,,,,,
2955074,1501039057617,,,,,,,,,0,2880,330,,,,,,,,,,,,,,,
2955084,1501039057627,3.17,,-0.05,0.26,-0.03,0,-6,1,0,3015,330,,,,,,,,,,,,,,,
2955094,1501039057637,,,,,,,,,0,2985,330,,,,,,,,,,,,,,,
2955104,1501039057647,,,,,,,,,0,3000,330,,,,,,,,,,,,,,,
2955114,1501039057657,,,,,,,,,0,2910,330,,,,,,,,,,,,,,,
2955124,1501039057667,3.2,,-0.1,0.27,-0.02,2,-7,1,0,3000,330,,,,,,,,,,,,,,,
2955134,1501039057677,,,,,,,,,0,3000,330,,,,,,,,,,,,,,,
2955144,1501039057687,,,,,,,,,0,2985,330,36.113655,-115.145935,21.21,6.302,2042.6,9,3,1.9,0,0.0,-1,0.0,0.0,0.0,0
2955154,1501039057697,,,,,,,,,0,2895,330,,,,,,,,,,,,,,,
2955164,1501039057707,3.19,,-0.12,0.3,-0.01,3,-8,1,0,3015,330,,,,,,,,,,,,,,,
2955174,1501039057717,,,,,,,,,0,3015,330,,,,,,,,,,,,,,,
2955184,1501039057727,,,,,,,,,0,3000,330,,,,,,,,,,,,,,,
2955194,1501039057737,,,,,,,,,0,2925,340,,,,,,,,,,,,,,,
2955204,1501039057747,3.25,,-0.18,0.33,-0.1,5,-7,-1,0,2970,340,,,,,,,,,,,,,,,
2955214,1501039057757,,,,,,,,,0,2970,340,,,,,,,,,,,,,,,
2955224,1501039057767,,,,,,,,,0,2955,330,,,,,,,,,,,,,,,
2955234,1501039057777,,,,,,,,,0,2865,330,,,,,,,,,,,,,,,
2955244,1501039057787,3.07,,-0.2,0.27,-0.18,5,-6,0,0,2865,330,36.113655,-115.14595,21.47,6.303,2042.7,9,3,1.9,0,0.0,-1,0.0,0.0,0.0,0
2955254,1501039057797,,,,,,,,,0,2805,320,,,,,,,,,,,,,,,
2955264,1501039057807,,,,,,,,,0,2790,320,,,,,,,,,,,,,,,
2955274,1501039057817,,,,,,,,,0,2730,320,,,,,,,,,,,,,,,
2955284,1501039057827,3.15,,-0.22,0.24,-0.16,5,-5,-3,0,2730,320,,,,,,,,,,,,,,,
2955294,1501039057837,,,,,,,,,0,2685,320,,,,,,,,,,,,,,,
2955304,1501039057847,,,,,,,,,0,2670,320,,,,,,,,,,,,,,,
2955314,1501039057857,,,,,,,,,0,2685,310,,,,,,,,,,,,,,,
2955324,1501039057867,3.17,,-0.28,0.18,0.03,5,-3,-2,0,2625,310,,,,,,,,,,,,,,,
2955334,1501039057877,,,,,,,,,0,2625,310,,,,,,,,,,,,,,,
2955344,1501039057887,,,,,,,,,0,2565,310,36.113655,-115.145958,21.69,6.303,2042.7,9,3,1.9,0,0.0,-1,0.0,0.0,0.0,0
2955354,1501039057897,,,,,,,,,0,2565,300,,,,,,,,,,,,,,,
2955364,1501039057907,3.23,,-0.28,0.18,0.06,2,-4,-1,0,2520,300,,,,,,,,,,,,,,,
2955374,1501039057917,,,,,,,,,0,2490,300,,,,,,,,,,,,,,,
2955384,1501039057927,,,,,,,,,0,2490,290,,,,,,,,,,,,,,,
2955394,1501039057937,,,,,,,,,0,2460,290,,,,,,,,,,,,,,,
2955404,1501039057947,3.22,,-0.31,0.14,0.14,2,-3,-1,0,2460,290,,,,,,,,,,,,,,,
2955414,1501039057957,,,,,,,,,0,2460,290,,,,,,,,,,,,,,,
2955424,1501039057967,,,,,,,,,0,2430,290,,,,,,,,,,,,,,,
2955434,1501039057977,,,,,,,,,0,2460,290,,,,,,,,,,,,,,,
2955444,1501039057987,3.17,,-0.4,0.05,0.29,2,0,-0,0,2445,290,36.113655,-115.145973,21.65,6.304,2042.8,9,3,1.9,0,0.0,-1,0.0,0.0,0.0,0
2955454,1501039057991,,,,,,,,,0,2415,280,,,,,,,,,,,,,,,
2955464,1501039058001,,,,,,,,,0,2415,280,,,,,,,,,,,,,,,
2955474,1501039058011,,,,,,,,,0,2385,280,,,,,,,,,,,,,,,
2955484,1501039058021,3.22,,-0.41,0.03,0.42,1,4,3,0,2400,280,,,,,,,,,,,,,,,
2955494,1501039058031,,,,,,,,,0,2385,280,,,,,,,,,,,,,,,
2955504,1501039058041,,,,,,,,,0,2385,280,,,,,,,,,,,,,,,
2955514,1501039058051,,,,,,,,,0,2355,280,,,,,,,,,,,,,,,
2955524,1501039058061,3.26,,-0.47,0.05,0.5,1,0,4,0,2325,270,,,,,,,,,,,,,,,
2955534,1501039058071,,,,,,,,,0,2340,270,,,,,,,,,,,,,,,
2955544,1501039058081,,,,,,,,,0,2325,270,36.113655,-115.145988,21.29,6.305,2042.9,9,3,1.9,0,0.0,-1,0.0,0.0,0.0,0
2955554,1501039058091,,,,,,,,,0,2310,270,,,,,,,,,,,,,,,
2955564,1501039058099,3.26,,-0.5,0.02,0.64,1,2,5,0,2310,270,,,,,,,,,,,,,,,
2955574,1501039058109,,,,,,,,,0,2295,270,,,,,,,,,,,,,,,
2955584,1501039058119,,,,,,,,,0,2295,270,,,,,,,,,,,,,,,
2955594,1501039058129,,,,,,,,,0,2295,270,,,,,,,,,,,,,,,
2955604,1501039058139,3.25,,-0.49,-0.0,0.7,0,-1,3,0,2280,270,,,,,,,,,,,,,,,
2955614,1501039058149,,,,,,,,,0,2265,270,,,,,,,,,,,,,,,
2955624,1501039058159,,,,,,,,,0,2250,270,,,,,,,,,,,,,,,
2955634,1501039058169,,,,,,,,,0,2250,260,,,,,,,,,,,,,,,
2955644,1501039058179,3.28,,-0.48,0.0,0.72,-0,-1,3,0,2235,260,36.113651,-115.145996,20.38,6.305,2043.0,9,3,2.0,0,0.0,-1,0.0,0.0,0.0,0
2955654,1501039058197,,,,,,,,,0,2205,260,,,,,,,,,,,,,,,
2955664,1501039058207,,,,,,,,,0,2205,260,,,,,,,,,,,,,,,
2955674,1501039058217,,,,,,,,,0,2190,250,,,,,,,,,,,,,,,
2955684,1501039058227,3.27,,-0.5,-0.02,0.77,-0,-3,4,0,2175,250,,,,,,,,,,,,,,,
2955694,1501039058237,,,,,,,,,0,2175,250,,,,,,,,,,,,,,,
2955704,1501039058247,,,,,,,,,0,2160,250,,,,,,,,,,,,,,,
2955714,1501039058257,,,,,,,,,0,2130,250,,,,,,,,,,,,,,,
2955724,1501039058267,3.24,,-0.52,-0.02,0.81,-1,-2,4,0,2115,250,,,,,,,,,,,,,,,
2955734,1501039058277,,,,,,,,,0,2100,250,,,,,,,,,,,,,,,
2955744,1501039058287,,,,,,,,,0,2100,250,36.113651,-115.145996,19.39,6.306,2043.1,9,3,1.9,0,0.0,-1,0.0,0.0,0.0,0
2955754,1501039058295,,,,,,,,,0,2085,240,,,,,,,,,,,,,,,
2955764,1501039058305,3.28,,-0.54,-0.02,0.86,-1,-3,4,0,2070,240,,,,,,,,,,,,,,,
2955774,1501039058315,,,,,,,,,0,2055,240,,,,,,,,,,,,,,,
2955784,1501039058325,,,,,,,,,0,2055,240,,,,,,,,,,,,,,,
2955794,1501039058335,,,,,,,,,0,2040,240,,,,,,,,,,,,,,,
2955804,1501039058345,3.24,,-0.51,-0.05,0.91,-1,-4,4,0,2025,240,,,,,,,,,,,,,,,
2955814,1501039058355,,,,,,,,,0,2025,240,,,,,,,,,,,,,,,
2955824,1501039058365,,,,,,,,,0,2010,240,,,,,,,,,,,,,,,
2955834,1501039058375,,,,,,,,,0,1980,230,,,,,,,,,,,,,,,
2955844,1501039058385,3.29,,-0.51,-0.06,0.97,-1,-3,5,0,1965,230,36.113651,-115.146011,18.24,6.306,2043.1,9,3,1.9,0,0.0,-1,0.0,0.0,0.0,0
2955854,1501039058397,,,,,,,,,0,1950,230,,,,,,,,,,,,,,,
2955864,1501039058407,,,,,,,,,0,1950,230,,,,,,,,,,,,,,,
2955874,1501039058417,,,,,,,,,0,1950,230,,,,,,,,,,,,,,,
2955884,1501039058427,3.26,,-0.52,-0.03,0.98,-1,-3,6,0,1935,220,,,,,,,,,,,,,,,
2955894,1501039058437,,,,,,,,,0,1920,220,,,,,,,,,,,,,,,
2955904,1501039058447,,,,,,,,,0,1890,220,,,,,,,,,,,,,,,
2955914,1501039058457,,,,,,,,,0,1875,220,,,,,,,,,,,,,,,
2955924,1501039058467,3.24,,-0.51,-0.02,0.99,-1,-4,5,0,1860,210,,,,,,,,,,,,,,,
2955934,1501039058477,,,,,,,,,0,1860,210,,,,,,,,,,,,,,,
2955944,1501039058487,,,,,,,,,0,1830,210,36.113651,-115.146027,16.98,6.307,2043.1,9,3,1.9,0,0.0,-1,0.0,0.0,0.0,0
2955954,1501039058497,,,,,,,,,0,1830,210,,,,,,,,,,,,,,,
2955964,1501039058507,3.23,,-0.53,-0.04,1.0,-1,-3,5,0,1815,210,,,,,,,,,,,,,,,
2955974,1501039058517,,,,,,,,,0,1800,210,,,,,,,,,,,,,,,
2955984,1501039058527,,,,,,,,,0,1785,210,,,,,,,,,,,,,,,
2955994,1501039058537,,,,,,,,,0,1770,210,,,,,,,,,,,,,,,
2956004,1501039058547,3.26,,-0.53,-0.05,1.07,-2,-3,5,0,1770,210,,,,,,,,,,,,,,,
2956014,1501039058557,,,,,,,,,0,1755,210,,,,,,,,,,,,,,,
2956024,1501039058567,,,,,,,,,0,1725,200,,,,,,,,,,,,,,,
2956034,1501039058577,,,,,,,,,0,1710,200,,,,,,,,,,,,,,,
2956044,1501039058587,3.27,4.52,-0.55,-0.09,1.05,-1,-5,3,0,1695,200,36.113651,-115.146027,15.78,6.307,2043.1,9,3,1.9,0,0.0,-1,0.0,0.0,0.0,0
2956054,1501039058597,,,,,,,,,0,1680,200,,,,,,,,,,,,,,,
2956064,1501039058607,,,,,,,,,0,1680,200,,,,,,,,,,,,,,,
2956074,1501039058617,,,,,,,,,0,1680,190,,,,,,,,,,,,,,,
2956084,1501039058627,3.26,,-0.57,-0.03,1.01,-1,-6,4,0,1665,190,,,,,,,,,,,,,,,
2956094,1501039058637,,,,,,,,,0,1635,190,,,,,,,,,,,,,,,
2956104,1501039058647,,,,,,,,,0,1635,190,,,,,,,,,,,,,,,
2956114,1501039058657,,,,,,,,,0,1620,190,,,,,,,,,,,,,,,
2956124,1501039058667,3.22,,-0.58,-0.04,1.03,-1,-7,5,0,1605,190,,,,,,,,,,,,,,,
2956134,1501039058677,,,,,,,,,0,1590,180,,,,,,,,,,,,,,,
2956144,1501039058687,,,,,,,,,0,1590,180,36.113651,-115.146034,14.88,6.308,2043.0,9,3,1.9,0,0.0,-1,0.0,0.0,0.0,0
2956154,1501039058696,,,,,,,,,0,1590,180,,,,,,,,,,,,,,,
2956164,1501039058706,3.27,,-0.57,0.0,1.04,-1,-6,5,0,1575,180,,,,,,,,,,,,,,,
2956174,1501039058716,,,,,,,,,0,1545,180,,,,,,,,,,,,,,,
2956184,1501039058726,,,,,,,,,0,1515,180,,,,,,,,,,,,,,,
2956194,1501039058736,,,,,,,,,0,1500,170,,,,,,,,,,,,,,,
2956204,1501039058746,3.26,,-0.6,-0.01,1.03,-0,-5,4,0,1485,170,,,,,,,,,,,,,,,
2956214,1501039058756,,,,,,,,,0,1470,170,,,,,,,,,,,,,,,
2956224,1501039058766,,,,,,,,,0,1500,170,,,,,,,,,,,,,,,
2956234,1501039058776,,,,,,,,,0,1500,170,,,,,,,,,,,,,,,
2956244,1501039058786,3.2,,-0.59,-0.07,1.03,-0,-6,4,0,1485,170,36.113647,-115.146034,13.6,6.308,2043.1,9,3,1.9,0,0.0,-1,0.0,0.0,0.0,0
2956254,1501039058796,,,,,,,,,0,1455,160,,,,,,,,,,,,,,,
2956264,1501039058806,,,,,,,,,0,1440,160,,,,,,,,,,,,,,,
2956274,1501039058816,,,,,,,,,0,1410,160,,,,,,,,,,,,,,,
2956284,1501039058826,3.24,,-0.58,-0.13,1.06,-0,-6,4,0,1410,160,,,,,,,,,,,,,,,
2956294,1501039058836,,,,,,,,,0,1380,160,,,,,,,,,,,,,,,
2956304,1501039058846,,,,,,,,,0,1425,160,,,,,,,,,,,,,,,
2956314,1501039058856,,,,,,,,,0,1425,150,,,,,,,,,,,,,,,
2956324,1501039058866,3.24,,-0.56,-0.18,1.06,0,-6,5,0,1410,150,,,,,,,,,,,,,,,
2956334,1501039058876,,,,,,,,,0,1380,150,,,,,,,,,,,,,,,
2956344,1501039058886,,,,,,,,,0,1380,150,36.113647,-115.14605,12.74,6.308,2043.0,9,3,1.9,0,0.0,-1,0.0,0.0,0.0,0
2956354,1501039058896,,,,,,,,,0,1365,150,,,,,,,,,,,,,,,
2956364,1501039058906,3.23,,-0.55,-0.21,1.11,0,-7,5,0,1335,150,,,,,,,,,,,,,,,
2956374,1501039058916,,,,,,,,,0,1335,150,,,,,,,,,,,,,,,
2956384,1501039058926,,,,,,,,,0,1305,150,,,,,,,,,,,,,,,
2956394,1501039058936,,,,,,,,,0,1365,130,,,,,,,,,,,,,,,
2956404,1501039058946,3.23,,-0.53,-0.2,1.12,1,-10,4,0,1380,130,,,,,,,,,,,,,,,
2956414,1501039058956,,,,,,,,,0,1365,130,,,,,,,,,,,,,,,
2956424,1501039058966,,,,,,,,,0,1335,130,,,,,,,,,,,,,,,
2956434,1501039058976,,,,,,,,,0,1320,130,,,,,,,,,,,,,,,
2956444,1501039058986,3.25,,-0.54,-0.14,1.06,0,-9,3,0,1320,130,36.113647,-115.14605,11.62,6.309,2042.9,9,3,1.9,0,0.0,-1,0.0,0.0,0.0,0
2956454,1501039058996,,,,,,,,,0,1290,130,,,,,,,,,,,,,,,
2956464,1501039058998,,,,,,,,,0,1275,130,,,,,,,,,,,,,,,
2956474,1501039059008,,,,,,,,,0,1230,120,,,,,,,,,,,,,,,
2956484,1501039059018,3.23,,-0.55,-0.14,1.02,-0,-6,5,0,1335,120,,,,,,,,,,,,,,,
2956494,1501039059028,,,,,,,,,0,1365,120,,,,,,,,,,,,,,,
2956504,1501039059038,,,,,,,,,0,1350,120,,,,,,,,,,,,,,,
2956514,1501039059048,,,,,,,,,0,1320,120,,,,,,,,,,,,,,,
2956524,1501039059058,3.22,,-0.49,-0.18,1.11,0,-9,5,0,1320,120,,,,,,,,,,,,,,,
2956534,1501039059068,,,,,,,,,0,1290,120,,,,,,,,,,,,,,,
2956544,1501039059078,,,,,,,,,0,1260,120,36.113647,-115.146065,10.79,6.309,2042.8,9,3,1.9,0,0.0,-1,0.0,0.0,0.0,0
2956554,1501039059096,,,,,,,,,0,1245,9830,,,,,,,,,,,,,,,
2956564,1501039059106,3.21,,-0.5,-0.13,1.12,0,-8,4,0,1185,9840,,,,,,,,,,,,,,,
2956574,1501039059116,,,,,,,,,0,1335,9840,,,,,,,,,,,,,,,
2956584,1501039059126,,,,,,,,,0,1395,9840,,,,,,,,,,,,,,,
2956594,1501039059136,,,,,,,,,0,1380,9840,,,,,,,,,,,,,,,
2956604,1501039059146,3.23,,-0.49,-0.09,1.05,1,-8,4,0,1380,9840,,,,,,,,,,,,,,,
2956614,1501039059156,,,,,,,,,0,1350,9840,,,,,,,,,,,,,,,
2956624,1501039059166,,,,,,,,,0,1320,9840,,,,,,,,,,,,,,,
2956634,1501039059176,,,,,,,,,0,1290,9840,,,,,,,,,,,,,,,
2956644,1501039059186,3.16,,-0.49,-0.08,1.01,1,-7,4,0,1275,9840,36.113647,-115.146065,9.45,6.309,2042.7,9,3,1.9,0,0.0,-1,0.0,0.0,0.0,0
2956654,1501039059196,,,,,,,,,0,1185,980,,,,,,,,,,,,,,,
2956664,1501039059206,,,,,,,,,0,1395,980,,,,,,,,,,,,,,,
2956674,1501039059216,,,,,,,,,0,1470,980,,,,,,,,,,,,,,,
2956684,1501039059226,3.22,,-0.47,-0.12,1.04,1,-7,5,0,1455,980,,,,,,,,,,,,,,,
2956694,1501039059236,,,,,,,,,0,1425,980,,,,,,,,,,,,,,,
2956704,1501039059246,,,,,,,,,0,1395,980,,,,,,,,,,,,,,,
2956714,1501039059256,,,,,,,,,0,1395,980,,,,,,,,,,,,,,,
2956724,1501039059266,3.23,,-0.42,-0.11,1.11,-0,-8,6,0,1350,980,,,,,,,,,,,,,,,
2956734,1501039059276,,,,,,,,,0,1305,980,,,,,,,,,,,,,,,
2956744,1501039059286,,,,,,,,,0,1215,980,36.113647,-115.146065,8.36,6.31,2042.6,9,3,1.9,0,0.0,-1,0.0,0.0,0.0,0
2956754,1501039059296,,,,,,,,,0,1410,540,,,,,,,,,,,,,,,
2956764,1501039059306,3.26,,-0.4,-0.03,1.02,-1,-8,7,0,1500,540,,,,,,,,,,,,,,,
2956774,1501039059316,,,,,,,,,0,1470,540,,,,,,,,,,,,,,,
2956784,1501039059326,,,,,,,,,0,1425,540,,,,,,,,,,,,,,,
2956794,1501039059336,,,,,,,,,0,1380,540,,,,,,,,,,,,,,,
2956804,1501039059346,3.24,,-0.4,-0.01,0.96,-1,-8,7,0,1335,540,,,,,,,,,,,,,,,
2956814,1501039059356,,,,,,,,,0,1335,540,,,,,,,,,,,,,,,
2956824,1501039059366,,,,,,,,,0,1290,540,,,,,,,,,,,,,,,
2956834,1501039059376,,,,,,,,,0,1185,540,,,,,,,,,,,,,,,
2956844,1501039059386,3.24,,-0.4,-0.05,1.05,-0,-8,6,0,1410,540,36.113647,-115.146072,7.38,6.31,2042.4,9,3,1.9,0,0.0,-1,0.0,0.0,0.0,0
2956854,1501039059396,,,,,,,,,0,1515,540,,,,,,,,,,,,,,,
2956864,1501039059406,,,,,,,,,0,1485,540,,,,,,,,,,,,,,,
2956874,1501039059416,,,,,,,,,0,1440,540,,,,,,,,,,,,,,,
2956884,1501039059426,3.23,,-0.36,-0.04,1.08,-0,-6,5,0,1410,260,,,,,,,,,,,,,,,
2956894,1501039059436,,,,,,,,,0,1365,260,,,,,,,,,,,,,,,
2956904,1501039059446,,,,,,,,,0,1320,260,,,,,,,,,,,,,,,
2956914,1501039059456,,,,,,,,,0,1215,260,,,,,,,,,,,,,,,
2956924,1501039059466,3.23,,-0.37,-0.03,1.01,-0,-6,6,0,1410,260,,,,,,,,,,,,,,,
2956934,1501039059476,,,,,,,,,0,1515,260,,,,,,,,,,,,,,,
2956944,1501039059486,,,,,,,,,0,1485,260,36.113647,-115.146072,6.45,6.31,2042.3,9,3,1.9,0,0.0,-1,0.0,0.0,0.0,0
2956954,1501039059496,,,,,,,,,0,1440,260,,,,,,,,,,,,,,,
2956964,1501039059506,3.18,,-0.32,-0.02,1.04,-1,-6,6,0,1395,10000000,,,,,,,,,,,,,,,
2956974,1501039059516,,,,,,,,,0,1395,0,,,,,,,,,,,,,,,
2956984,1501039059526,,,,,,,,,0,1365,0,,,,,,,,,,,,,,,
2956994,1501039059536,,,,,,,,,0,1305,0,,,,,,,,,,,,,,,
2957004,1501039059546,3.18,,-0.34,-0.0,1.0,-1,-6,5,0,1200,0,,,,,,,,,,,,,,,
2957014,1501039059556,,,,,,,,,0,1410,0,,,,,,,,,,,,,,,
2957024,1501039059566,,,,,,,,,0,1500,170,,,,,,,,,,,,,,,
2957034,1501039059576,,,,,,,,,0,1470,170,,,,,,,,,,,,,,,
2957044,1501039059586,3.24,4.52,-0.32,-0.03,0.96,-1,-8,4,0,1425,170,36.113647,-115.146072,5.77,6.31,2042.4,9,3,1.9,0,0.0,-1,0.0,0.0,0.0,0
2957054,1501039059596,,,,,,,,,0,1380,170,,,,,,,,,,,,,,,
2957064,1501039059606,,,,,,,,,0,1350,170,,,,,,,,,,,,,,,
2957074,1501039059616,,,,,,,,,0,1350,170,,,,,,,,,,,,,,,
2957084,1501039059626,3.23,,-0.32,-0.05,1.01,-0,-8,5,0,1290,170,,,,,,,,,,,,,,,
2957094,1501039059636,,,,,,,,,0,1185,170,,,,,,,,,,,,,,,
2957104,1501039059646,,,,,,,,,0,1365,170,,,,,,,,,,,,,,,
2957114,1501039059656,,,,,,,,,0,1470,170,,,,,,,,,,,,,,,
2957124,1501039059666,3.24,,-0.31,-0.03,1.11,-0,-6,4,0,1455,170,,,,,,,,,,,,,,,
2957134,1501039059676,,,,,,,,,0,1395,10000000,,,,,,,,,,,,,,,
2957144,1501039059686,,,,,,,,,0,1365,0,36.113647,-115.146072,4.89,6.31,2042.4,9,3,1.9,0,0.0,-1,0.0,0.0,0.0,0
2957154,1501039059695,,,,,,,,,0,1335,0,,,,,,,,,,,,,,,
2957164,1501039059705,3.14,,-0.29,-0.01,1.09,-0,-6,5,0,1290,0,,,,,,,,,,,,,,,
2957174,1501039059715,,,,,,,,,0,1290,0,,,,,,,,,,,,,,,
2957184,1501039059725,,,,,,,,,0,1170,0,,,,,,,,,,,,,,,
2957194,1501039059735,,,,,,,,,0,1365,120,,,,,,,,,,,,,,,
2957204,1501039059745,3.25,,-0.25,-0.02,1.03,-0,-9,4,0,1470,120,,,,,,,,,,,,,,,
2957214,1501039059755,,,,,,,,,0,1440,120,,,,,,,,,,,,,,,
2957224,1501039059765,,,,,,,,,0,1380,120,,,,,,,,,,,,,,,
2957234,1501039059775,,,,,,,,,0,1350,120,,,,,,,,,,,,,,,
2957244,1501039059785,3.24,,-0.22,-0.02,1.02,-0,-9,3,0,1320,120,36.113647,-115.146072,4.07,6.31,2042.5,9,3,1.9,0,0.0,-1,0.0,0.0,0.0,0
2957254,1501039059795,,,,,,,,,0,1260,120,,,,,,,,,,,,,,,
2957264,1501039059805,,,,,,,,,0,1140,120,,,,,,,,,,,,,,,
2957274,1501039059815,,,,,,,,,0,1140,120,,,,,,,,,,,,,,,
2957284,1501039059825,3.22,,-0.22,0.0,1.04,-0,-8,3,0,1350,120,,,,,,,,,,,,,,,
2957294,1501039059835,,,,,,,,,0,1455,120,,,,,,,,,,,,,,,
2957304,1501039059845,,,,,,,,,0,1425,120,,,,,,,,,,,,,,,
2957314,1501039059855,,,,,,,,,0,1395,10000000,,,,,,,,,,,,,,,
2957324,1501039059865,3.22,,-0.19,0.0,1.03,-0,-7,3,0,1350,0,,,,,,,,,,,,,,,
2957334,1501039059875,,,,,,,,,0,1305,0,,,,,,,,,,,,,,,
2957344,1501039059885,,,,,,,,,0,1260,0,36.113647,-115.146088,3.64,6.311,2042.5,9,3,1.9,0,0.0,-1,0.0,0.0,0.0,0
2957354,1501039059895,,,,,,,,,0,1260,0,,,,,,,,,,,,,,,
2957364,1501039059905,3.2,,-0.2,-0.01,0.97,-0,-8,3,0,1140,0,,,,,,,,,,,,,,,
2957374,1501039059915,,,,,,,,,0,1305,0,,,,,,,,,,,,,,,
2957384,1501039059925,,,,,,,,,0,1410,0,,,,,,,,,,,,,,,
2957394,1501039059935,,,,,,,,,0,1380,380,,,,,,,,,,,,,,,
2957404,1501039059945,3.24,,-0.16,-0.03,1.0,0,-9,3,0,1320,380,,,,,,,,,,,,,,,
2957414,1501039059955,,,,,,,,,0,1290,380,,,,,,,,,,,,,,,
2957424,1501039059965,,,,,,,,,0,1245,380,,,,,,,,,,,,,,,
2957434,1501039059975,,,,,,,,,0,1245,380,,,,,,,,,,,,,,,
2957444,1501039059985,3.23,,-0.18,-0.04,1.01,0,-7,4,0,1200,380,36.113647,-115.146088,3.08,6.311,2042.4,9,3,1.9,0,0.0,-1,0.0,0.0,0.0,0
2957454,1501039059995,,,,,,,,,0,1080,380,,,,,,,,,,,,,,,
2957464,1501039059999,,,,,,,,,0,1215,380,,,,,,,,,,,,,,,
2957474,1501039060009,,,,,,,,,0,1305,380,,,,,,,,,,,,,,,
2957484,1501039060019,3.18,,-0.18,-0.02,1.06,-0,-5,4,0,1290,0,,,,,,,,,,,,,,,
2957494,1501039060029,,,,,,,,,0,1290,0,,,,,,,,,,,,,,,
2957504,1501039060039,,,,,,,,,0,1245,0,,,,,,,,,,,,,,,
2957514,1501039060049,,,,,,,,,0,1215,0,,,,,,,,,,,,,,,
2957524,1501039060059,3.23,,-0.13,-0.02,1.1,-0,-5,4,0,1170,0,,,,,,,,,,,,,,,
2957534,1501039060069,,,,,,,,,0,1170,0,,,,,,,,,,,,,,,
2957544,1501039060079,,,,,,,,,0,1140,0,36.113647,-115.146088,2.98,6.311,2042.5,9,3,1.9,0,0.0,-1,0.0,0.0,0.0,0
2957554,1501039060095,,,,,,,,,0,1020,0,,,,,,,,,,,,,,,
2957564,1501039060105,3.15,,-0.21,-0.04,1.11,-0,-3,4,0,1110,0,,,,,,,,,,,,,,,
2957574,1501039060115,,,,,,,,,0,1110,0,,,,,,,,,,,,,,,
2957584,1501039060125,,,,,,,,,0,1155,0,,,,,,,,,,,,,,,
2957594,1501039060135,,,,,,,,,0,1140,0,,,,,,,,,,,,,,,
2957604,1501039060145,3.16,,-0.25,-0.04,1.13,-0,-1,4,0,1110,0,,,,,,,,,,,,,,,
2957614,1501039060155,,,,,,,,,0,1110,0,,,,,,,,,,,,,,,
2957624,1501039060165,,,,,,,,,0,1095,0,,,,,,,,,,,,,,,
2957634,1501039060175,,,,,,,,,0,1080,0,,,,,,,,,,,,,,,
2957644,1501039060185,3.21,,-0.27,-0.06,1.14,-0,-1,4,0,1080,0,36.113647,-115.146088,2.69,6.311,2042.4,9,3,1.9,0,0.0,-1,0.0,0.0,0.0,0
2957654,1501039060197,,,,,,,,,0,1065,0,,,,,,,,,,,,,,,
2957664,1501039060207,,,,,,,,,0,945,0,,,,,,,,,,,,,,,
2957674,1501039060217,,,,,,,,,0,1095,0,,,,,,,,,,,,,,,
2957684,1501039060227,3.21,,-0.31,-0.05,1.08,-0,-3,5,0,1095,0,,,,,,,,,,,,,,,
2957694,1501039060237,,,,,,,,,0,1215,0,,,,,,,,,,,,,,,
2957704,1501039060247,,,,,,,,,0,1215,0,,,,,,,,,,,,,,,
2957714,1501039060257,,,,,,,,,0,1185,0,,,,,,,,,,,,,,,
2957724,1501039060267,3.19,,-0.36,-0.06,1.03,-1,-3,5,0,1185,0,,,,,,,,,,,,,,,
2957734,1501039060277,,,,,,,,,0,1185,0,,,,,,,,,,,,,,,
2957744,1501039060287,,,,,,,,,0,1170,0,36.113647,-115.146088,2.14,6.311,2042.5,9,3,1.9,0,0.0,-1,0.0,0.0,0.0,0
2957754,1501039060297,,,,,,,,,0,1155,0,,,,,,,,,,,,,,,
2957764,1501039060307,3.2,,-0.37,-0.05,0.98,-1,-4,4,0,1065,0,,,,,,,,,,,,,,,
2957774,1501039060317,,,,,,,,,0,1305,0,,,,,,,,,,,,,,,
2957784,1501039060327,,,,,,,,,0,1425,0,,,,,,,,,,,,,,,
2957794,1501039060337,,,,,,,,,0,1425,0,,,,,,,,,,,,,,,
2957804,1501039060347,3.12,,-0.36,-0.02,0.93,-1,-6,4,0,1410,0,,,,,,,,,,,,,,,
2957814,1501039060357,,,,,,,,,0,1395,0,,,,,,,,,,,,,,,
2957824,1501039060367,,,,,,,,,0,1395,0,,,,,,,,,,,,,,,
2957834,1501039060377,,,,,,,,,0,1380,0,,,,,,,,,,,,,,,
2957844,1501039060387,3.18,,-0.29,-0.04,0.96,-1,-8,5,0,1365,0,36.113647,-115.146088,1.42,6.311,2042.6,9,3,1.9,0,0.0,-1,0.0,0.0,0.0,0
2957854,1501039060397,,,,,,,,,0,1275,0,,,,,,,,,,,,,,,
2957864,1501039060407,,,,,,,,,0,1500,0,,,,,,,,,,,,,,,
2957874,1501039060417,,,,,,,,,0,1605,0,,,,,,,,,,,,,,,
2957884,1501039060427,3.19,,-0.23,-0.05,1.03,-1,-9,4,0,1605,0,,,,,,,,,,,,,,,
2957894,1501039060437,,,,,,,,,0,1575,0,,,,,,,,,,,,,,,
2957904,1501039060447,,,,,,,,,0,1545,0,,,,,,,,,,,,,,,
2957914,1501039060457,,,,,,,,,0,1530,0,,,,,,,,,,,,,,,
2957924,1501039060467,3.13,,-0.2,-0.03,1.09,-1,-10,6,0,1440,0,,,,,,,,,,,,,,,
2957934,1501039060477,,,,,,,,,0,1665,0,,,,,,,,,,,,,,,
2957944,1501039060487,,,,,,,,,0,1800,0,36.113647,-115.146088,0.0,6.311,2042.7,9,3,1.9,0,0.0,-1,0.0,0.0,0.0,0
2957954,1501039060497,,,,,,,,,0,1785,0,,,,,,,,,,,,,,,
2957964,1501039060507,3.18,,-0.13,0.02,1.07,-1,-11,3,0,1740,0,,,,,,,,,,,,,,,
2957974,1501039060517,,,,,,,,,0,1725,0,,,,,,,,,,,,,,,
2957984,1501039060527,,,,,,,,,0,1680,0,,,,,,,,,,,,,,,
2957994,1501039060537,,,,,,,,,0,1605,0,,,,,,,,,,,,,,,
2958004,1501039060547,3.21,,-0.1,0.02,0.98,-1,-11,5,0,1680,0,,,,,,,,,,,,,,,
2958014,1501039060557,,,,,,,,,0,1710,0,,,,,,,,,,,,,,,
2958024,1501039060567,,,,,,,,,0,1695,0,,,,,,,,,,,,,,,
2958034,1501039060577,,,,,,,,,0,1650,0,,,,,,,,,,,,,,,
2958044,1501039060587,3.19,4.49,-0.08,0.0,0.99,-0,-10,5,0,1620,0,36.113647,-115.146088,0.0,6.311,2042.8,9,3,1.9,0,0.0,-1,0.0,0.0,0.0,0
2958054,1501039060594,,,,,,,,,0,1575,0,,,,,,,,,,,,,,,
2958064,1501039060604,,,,,,,,,0,1545,0,,,,,,,,,,,,,,,
2958074,1501039060614,,,,,,,,,0,1470,0,,,,,,,,,,,,,,,
2958084,1501039060624,3.19,,-0.05,-0.02,1.01,-1,-8,6,0,1575,0,,,,,,,,,,,,,,,
2958094,1501039060634,,,,,,,,,0,1620,0,,,,,,,,,,,,,,,
2958104,1501039060644,,,,,,,,,0,1575,0,,,,,,,,,,,,,,,
2958114,1501039060654,,,,,,,,,0,1545,0,,,,,,,,,,,,,,,
2958124,1501039060664,3.2,,-0.04,-0.01,1.04,-1,-7,5,0,1500,0,,,,,,,,,,,,,,,
2958134,1501039060674,,,,,,,,,0,1470,0,,,,,,,,,,,,,,,
2958144,1501039060684,,,,,,,,,0,1425,0,36.113647,-115.146088,0.0,6.311,2043.1,9,3,1.9,0,0.0,-1,0.0,0.0,0.0,0
2958154,1501039060696,,,,,,,,,0,1350,0,,,,,,,,,,,,,,,
2958164,1501039060706,3.2,,0.0,-0.02,1.05,-1,-5,5,0,1485,0,,,,,,,,,,,,,,,
2958174,1501039060716,,,,,,,,,0,1545,0,,,,,,,,,,,,,,,
2958184,1501039060726,,,,,,,,,0,1515,0,,,,,,,,,,,,,,,
2958194,1501039060736,,,,,,,,,0,1485,0,,,,,,,,,,,,,,,
2958204,1501039060746,3.2,,0.01,-0.01,1.05,-1,-5,4,0,1440,0,,,,,,,,,,,,,,,
2958214,1501039060756,,,,,,,,,0,1395,0,,,,,,,,,,,,,,,
2958224,1501039060766,,,,,,,,,0,1365,0,,,,,,,,,,,,,,,
2958234,1501039060776,,,,,,,,,0,1275,0,,,,,,,,,,,,,,,
2958244,1501039060786,3.21,,0.0,-0.02,1.03,-1,-5,6,0,1455,0,36.113647,-115.146088,0.0,6.311,2043.2,9,3,1.9,0,0.0,-1,0.0,0.0,0.0,0
2958254,1501039060796,,,,,,,,,0,1545,0,,,,,,,,,,,,,,,
2958264,1501039060806,,,,,,,,,0,1515,0,,,,,,,,,,,,,,,
2958274,1501039060816,,,,,,,,,0,1470,0,,,,,,,,,,,,,,,
2958284,1501039060826,3.19,,0.02,0.01,1.07,-2,-5,6,0,1440,0,,,,,,,,,,,,,,,
2958294,1501039060836,,,,,,,,,0,1410,0,,,,,,,,,,,,,,,
2958304,1501039060846,,,,,,,,,0,1410,0,,,,,,,,,,,,,,,
2958314,1501039060856,,,,,,,,,0,1380,0,,,,,,,,,,,,,,,
2958324,1501039060866,3.2,,0.01,0.01,0.99,-2,-5,6,0,1275,0,,,,,,,,,,,,,,,
2958334,1501039060876,,,,,,,,,0,1575,0,,,,,,,,,,,,,,,
2958344,1501039060886,,,,,,,,,0,1560,0,36.113647,-115.146088,0.0,6.311,2043.3,9,3,1.9,0,0.0,-1,0.0,0.0,0.0,0
2958354,1501039060896,,,,,,,,,0,1515,0,,,,,,,,,,,,,,,
2958364,1501039060906,3.15,,0.01,-0.01,1.05,-1,-7,4,0,1485,0,,,,,,,,,,,,,,,
2958374,1501039060916,,,,,,,,,0,1485,0,,,,,,,,,,,,,,,
2958384,1501039060926,,,,,,,,,0,1455,0,,,,,,,,,,,,,,,
2958394,1501039060936,,,,,,,,,0,1425,0,,,,,,,,,,,,,,,
2958404,1501039060946,3.2,,-0.0,-0.02,0.99,-1,-8,4,0,1335,0,,,,,,,,,,,,,,,
2958414,1501039060956,,,,,,,,,0,1635,0,,,,,,,,,,,,,,,
2958424,1501039060966,,,,,,,,,0,1605,0,,,,,,,,,,,,,,,
2958434,1501039060976,,,,,,,,,0,1590,0,,,,,,,,,,,,,,,
2958444,1501039060986,3.18,,0.01,-0.05,1.03,-1,-8,3,0,1545,0,36.113647,-115.146088,0.0,6.311,2043.4,9,3,1.9,0,0.0,-1,0.0,0.0,0.0,0
2958454,1501039060996,,,,,,,,,0,1515,0,,,,,,,,,,,,,,,
2958464,1501039061000,,,,,,,,,0,1485,0,,,,,,,,,,,,,,,
2958474,1501039061010,,,,,,,,,0,1395,0,,,,,,,,,,,,,,,
2958484,1501039061020,3.19,,0.01,-0.05,0.94,-1,-8,3,0,1575,0,,,,,,,,,,,,,,,
2958494,1501039061030,,,,,,,,,0,1665,0,,,,,,,,,,,,,,,
2958504,1501039061040,,,,,,,,,0,1650,0,,,,,,,,,,,,,,,
2958514,1501039061050,,,,,,,,,0,1605,0,,,,,,,,,,,,,,,
2958524,1501039061060,3.16,,0.0,-0.05,1.03,-1,-8,3,0,1575,0,,,,,,,,,,,,,,,
2958534,1501039061070,,,,,,,,,0,1545,0,,,,,,,,,,,,,,,
2958544,1501039061080,,,,,,,,,0,1500,250,36.113647,-115.146088,0.0,6.311,2043.3,9,3,1.9,0,0.0,-1,0.0,0.0,0.0,0
2958554,1501039061096,,,,,,,,,0,1425,250,,,,,,,,,,,,,,,
2958564,1501039061106,3.23,,0.03,-0.05,1.05,-1,-6,4,0,1575,250,,,,,,,,,,,,,,,
2958574,1501039061116,,,,,,,,,0,1650,250,,,,,,,,,,,,,,,
2958584,1501039061126,,,,,,,,,0,1620,250,,,,,,,,,,,,,,,
2958594,1501039061136,,,,,,,,,0,1575,250,,,,,,,,,,,,,,,
2958604,1501039061146,3.21,,0.05,-0.06,1.08,-2,-5,5,0,1530,250,,,,,,,,,,,,,,,
2958614,1501039061156,,,,,,,,,0,1485,250,,,,,,,,,,,,,,,
2958624,1501039061166,,,,,,,,,0,1455,250,,,,,,,,,,,,,,,
2958634,1501039061176,,,,,,,,,0,1350,250,,,,,,,,,,,,,,,
2958644,1501039061186,3.22,,0.07,-0.05,1.09,-2,-3,4,0,1530,250,36.113647,-115.146088,0.0,6.311,2043.3,9,3,1.9,0,0.0,-1,0.0,0.0,0.0,0
2958654,1501039061196,,,,,,,,,0,1605,250,,,,,,,,,,,,,,,
2958664,1501039061206,,,,,,,,,0,1575,250,,,,,,,,,,,,,,,
2958674,1501039061216,,,,,,,,,0,1530,250,,,,,,,,,,,,,,,
2958684,1501039061226,3.21,,0.06,-0.03,1.09,-2,-3,2,0,1500,10000000,,,,,,,,,,,,,,,
2958694,1501039061236,,,,,,,,,0,1455,0,,,,,,,,,,,,,,,
2958704,1501039061246,,,,,,,,,0,1425,0,,,,,,,,,,,,,,,
2958714,1501039061256,,,,,,,,,0,1320,0,,,,,,,,,,,,,,,
2958724,1501039061266,3.21,,0.06,-0.04,1.08,-2,-2,3,0,1530,0,,,,,,,,,,,,,,,
2958734,1501039061276,,,,,,,,,0,1620,0,,,,,,,,,,,,,,,
2958744,1501039061286,,,,,,,,,0,1590,0,36.113647,-115.146088,0.0,6.311,2043.2,9,3,1.9,0,0.0,-1,0.0,0.0,0.0,0
2958754,1501039061298,,,,,,,,,0,1560,0,,,,,,,,,,,,,,,
2958764,1501039061308,3.2,,0.04,-0.03,1.1,-2,-2,3,0,1515,0,,,,,,,,,,,,,,,
2958774,1501039061318,,,,,,,,,0,1485,0,,,,,,,,,,,,,,,
2958784,1501039061328,,,,,,,,,0,1455,0,,,,,,,,,,,,,,,
2958794,1501039061338,,,,,,,,,0,1350,0,,,,,,,,,,,,,,,
2958804,1501039061348,3.21,,0.03,-0.04,1.12,-2,-1,3,0,1560,0,,,,,,,,,,,,,,,
2958814,1501039061358,,,,,,,,,0,1650,0,,,,,,,,,,,,,,,
2958824,1501039061368,,,,,,,,,0,1620,0,,,,,,,,,,,,,,,
2958834,1501039061378,,,,,,,,,0,1575,0,,,,,,,,,,,,,,,
2958844,1501039061388,3.21,,0.02,-0.04,1.14,-2,-1,1,0,1560,0,36.113647,-115.146088,0.0,6.311,2043.2,9,3,1.9,0,0.0,-1,0.0,0.0,0.0,0
2958854,1501039061396,,,,,,,,,0,1515,0,,,,,,,,,,,,,,,
2958864,1501039061406,,,,,,,,,0,1485,0,,,,,,,,,,,,,,,
2958874,1501039061416,,,,,,,,,0,1575,0,,,,,,,,,,,,,,,
2958884,1501039061426,3.2,,-0.01,-0.01,1.16,-1,-0,0,0,1665,0,,,,,,,,,,,,,,,
2958894,1501039061436,,,,,,,,,0,1620,0,,,,,,,,,,,,,,,
2958904,1501039061446,,,,,,,,,0,1590,0,,,,,,,,,,,,,,,
2958914,1501039061456,,,,,,,,,0,1560,0,,,,,,,,,,,,,,,
2958924,1501039061466,3.22,,-0.01,0.03,1.07,-1,-1,-0,0,1530,0,,,,,,,,,,,,,,,
2958934,1501039061476,,,,,,,,,0,1485,0,,,,,,,,,,,,,,,
2958944,1501039061486,,,,,,,,,0,1395,0,36.113647,-115.146088,0.0,6.311,2043.2,9,3,1.9,0,0.0,-1,0.0,0.0,0.0,0
2958954,1501039061496,,,,,,,,,0,1560,0,,,,,,,,,,,,,,,
2958964,1501039061506,3.23,,0.0,0.05,1.08,-2,-1,1,0,1650,0,,,,,,,,,,,,,,,
2958974,1501039061516,,,,,,,,,0,1605,0,,,,,,,,,,,,,,,
2958984,1501039061526,,,,,,,,,0,1575,0,,,,,,,,,,,,,,,
2958994,1501039061536,,,,,,,,,0,1530,0,,,,,,,,,,,,,,,
2959004,1501039061546,3.25,,-0.0,0.04,0.99,-2,-2,1,0,1500,0,,,,,,,,,,,,,,,
2959014,1501039061556,,,,,,,,,0,1455,0,,,,,,,,,,,,,,,
2959024,1501039061566,,,,,,,,,0,1365,0,,,,,,,,,,,,,,,
2959034,1501039061576,,,,,,,,,0,1545,0,,,,,,,,,,,,,,,
2959044,1501039061586,3.24,4.51,0.02,0.06,0.99,-1,-5,0,0,1605,0,36.113647,-115.146088,0.0,6.311,2043.2,9,3,1.9,0,0.0,-1,0.0,0.0,0.0,0
2959054,1501039061596,,,,,,,,,0,1590,0,,,,,,,,,,,,,,,
2959064,1501039061606,,,,,,,,,0,1545,0,,,,,,,,,,,,,,,
2959074,1501039061616,,,,,,,,,0,1500,0,,,,,,,,,,,,,,,
2959084,1501039061626,3.24,,0.02,0.01,0.95,-1,-3,1,0,1470,0,,,,,,,,,,,,,,,
2959094,1501039061636,,,,,,,,,0,1425,0,,,,,,,,,,,,,,,
2959104,1501039061646,,,,,,,,,0,1320,0,,,,,,,,,,,,,,,
2959114,1501039061656,,,,,,,,,0,1515,0,,,,,,,,,,,,,,,
2959124,1501039061666,3.21,,0.04,0.01,0.96,-1,-5,1,0,1605,0,,,,,,,,,,,,,,,
2959134,1501039061676,,,,,,,,,0,1575,0,,,,,,,,,,,,,,,
2959144,1501039061686,,,,,,,,,0,1530,0,36.113647,-115.146088,0.0,6.311,2043.2,9,3,1.9,0,0.0,-1,0.0,0.0,0.0,0
2959154,1501039061697,,,,,,,,,0,1485,0,,,,,,,,,,,,,,,
2959164,1501039061707,3.2,,0.03,-0.04,0.94,-0,-4,2,0,1455,0,,,,,,,,,,,,,,,
2959174,1501039061717,,,,,,,,,0,1410,0,,,,,,,,,,,,,,,
2959184,1501039061727,,,,,,,,,0,1305,0,,,,,,,,,,,,,,,
2959194,1501039061737,,,,,,,,,0,1515,0,,,,,,,,,,,,,,,
2959204,1501039061747,3.25,,0.03,0.0,0.97,-0,-5,2,0,1605,0,,,,,,,,,,,,,,,
2959214,1501039061757,,,,,,,,,0,1575,0,,,,,,,,,,,,,,,
2959224,1501039061767,,,,,,,,,0,1530,0,,,,,,,,,,,,,,,
2959234,1501039061777,,,,,,,,,0,1485,0,,,,,,,,,,,,,,,
2959244,1501039061787,3.25,,0.03,-0.02,0.92,-0,-6,3,0,1455,0,36.113647,-115.146088,0.0,6.311,2043.2,9,3,1.9,0,0.0,-1,0.0,0.0,0.0,0
2959254,1501039061797,,,,,,,,,0,1410,0,,,,,,,,,,,,,,,
2959264,1501039061807,,,,,,,,,0,1305,0,,,,,,,,,,,,,,,
2959274,1501039061817,,,,,,,,,0,1515,0,,,,,,,,,,,,,,,
2959284,1501039061827,3.23,,0.03,0.0,0.96,-1,-5,2,0,1605,0,,,,,,,,,,,,,,,
2959294,1501039061837,,,,,,,,,0,1575,0,,,,,,,,,,,,,,,
2959304,1501039061847,,,,,,,,,0,1545,0,,,,,,,,,,,,,,,
2959314,1501039061857,,,,,,,,,0,1500,0,,,,,,,,,,,,,,,
2959324,1501039061867,3.21,,0.04,-0.0,0.9,-1,-6,1,0,1455,0,,,,,,,,,,,,,,,
2959334,1501039061877,,,,,,,,,0,1410,0,,,,,,,,,,,,,,,
2959344,1501039061887,,,,,,,,,0,1305,0,36.113647,-115.146088,0.0,6.311,2043.2,9,3,1.9,0,0.0,-1,0.0,0.0,0.0,0
2959354,1501039061897,,,,,,,,,0,1515,0,,,,,,,,,,,,,,,
2959364,1501039061907,3.22,,0.04,0.05,0.94,-0,-7,-1,0,1620,0,,,,,,,,,,,,,,,
2959374,1501039061917,,,,,,,,,0,1575,0,,,,,,,,,,,,,,,
2959384,1501039061927,,,,,,,,,0,1530,0,,,,,,,,,,,,,,,
2959394,1501039061937,,,,,,,,,0,1500,0,,,,,,,,,,,,,,,
2959404,1501039061947,3.18,,0.05,0.04,0.9,-0,-8,-0,0,1455,0,,,,,,,,,,,,,,,
2959414,1501039061957,,,,,,,,,0,1410,0,,,,,,,,,,,,,,,
2959424,1501039061967,,,,,,,,,0,1290,0,,,,,,,,,,,,,,,
2959434,1501039061977,,,,,,,,,0,1500,0,,,,,,,,,,,,,,,
2959444,1501039061987,3.09,,0.05,0.07,0.98,-0,-7,-1,0,1605,0,36.113647,-115.146088,0.0,6.311,2043.2,9,3,1.9,0,0.0,-1,0.0,0.0,0.0,0
2959454,1501039061997,,,,,,,,,0,1575,0,,,,,,,,,,,,,,,
2959464,1501039061999,,,,,,,,,0,1530,0,,,,,,,,,,,,,,,
2959474,1501039062009,,,,,,,,,0,1470,0,,,,,,,,,,,,,,,
2959484,1501039062019,3.11,,0.06,0.06,0.94,-1,-8,-1,0,1440,0,,,,,,,,,,,,,,,
2959494,1501039062029,,,,,,,,,0,1440,0,,,,,,,,,,,,,,,
2959504,1501039062039,,,,,,,,,0,1380,0,,,,,,,,,,,,,,,
2959514,1501039062049,,,,,,,,,0,1260,0,,,,,,,,,,,,,,,
2959524,1501039062059,3.13,,0.06,0.06,1.07,-1,-6,-0,0,1590,0,,,,,,,,,,,,,,,
2959534,1501039062069,,,,,,,,,0,1545,0,,,,,,,,,,,,,,,
2959544,1501039062079,,,,,,,,,0,1500,0,36.113647,-115.146088,0.0,6.311,2043.2,9,3,1.9,0,0.0,-1,0.0,0.0,0.0,0
2959554,1501039062095,,,,,,,,,0,1500,0,,,,,,,,,,,,,,,
2959564,1501039062105,3.18,,0.05,0.1,1.0,-1,-7,0,0,1455,0,,,,,,,,,,,,,,,
2959574,1501039062115,,,,,,,,,0,1425,0,,,,,,,,,,,,,,,
2959584,1501039062125,,,,,,,,,0,1365,0,,,,,,,,,,,,,,,
2959594,1501039062135,,,,,,,,,0,1260,0,,,,,,,,,,,,,,,
2959604,1501039062145,3.17,,0.07,0.04,1.13,-2,-4,2,0,1485,0,,,,,,,,,,,,,,,
2959614,1501039062155,,,,,,,,,0,1590,0,,,,,,,,,,,,,,,
2959624,1501039062165,,,,,,,,,0,1560,0,,,,,,,,,,,,,,,
2959634,1501039062175,,,,,,,,,0,1530,0,,,,,,,,,,,,,,,
2959644,1501039062185,3.16,,0.04,0.08,1.12,-1,-5,-0,0,1485,0,36.113647,-115.146088,0.0,6.311,2043.2,9,3,1.9,0,0.0,-1,0.0,0.0,0.0,0
2959654,1501039062197,,,,,,,,,0,1440,0,,,,,,,,,,,,,,,
2959664,1501039062207,,,,,,,,,0,1395,0,,,,,,,,,,,,,,,
2959674,1501039062217,,,,,,,,,0,1305,0,,,,,,,,,,,,,,,
2959684,1501039062227,3.22,,0.05,0.04,1.15,-2,-2,1,0,1530,0,,,,,,,,,,,,,,,
2959694,1501039062237,,,,,,,,,0,1635,0,,,,,,,,,,,,,,,
2959704,1501039062247,,,,,,,,,0,1605,0,,,,,,,,,,,,,,,
2959714,1501039062257,,,,,,,,,0,1560,0,,,,,,,,,,,,,,,
2959724,1501039062267,3.2,,0.03,0.04,1.17,-2,-3,1,0,1530,0,,,,,,,,,,,,,,,
2959734,1501039062277,,,,,,,,,0,1500,0,,,,,,,,,,,,,,,
2959744,1501039062287,,,,,,,,,0,1470,0,36.113647,-115.146088,0.0,6.311,2043.2,9,3,1.9,0,0.0,-1,0.0,0.0,0.0,0
2959754,1501039062297,,,,,,,,,0,1365,0,,,,,,,,,,,,,,,
2959764,1501039062307,3.18,,0.03,0.02,1.25,-2,-2,3,0,1575,0,,,,,,,,,,,,,,,
2959774,1501039062317,,,,,,,,,0,1665,0,,,,,,,,,,,,,,,
2959784,1501039062327,,,,,,,,,0,1620,0,,,,,,,,,,,,,,,
2959794,1501039062337,,,,,,,,,0,1575,0,,,,,,,,,,,,,,,
2959804,1501039062347,3.12,,0.01,0.05,1.19,-2,-3,2,0,1545,0,,,,,,,,,,,,,,,
2959814,1501039062357,,,,,,,,,0,1500,0,,,,,,,,,,,,,,,
2959824,1501039062367,,,,,,,,,0,1425,0,,,,,,,,,,,,,,,
2959834,1501039062377,,,,,,,,,0,1605,0,,,,,,,,,,,,,,,
2959844,1501039062387,3.18,,-0.01,0.09,1.19,-2,-3,1,0,1680,0,36.113647,-115.146088,0.0,6.311,2043.2,9,3,1.9,0,0.0,-1,0.0,0.0,0.0,0
2959854,1501039062397,,,,,,,,,0,1665,0,,,,,,,,,,,,,,,
2959864,1501039062407,,,,,,,,,0,1620,0,,,,,,,,,,,,,,,
2959874,1501039062417,,,,,,,,,0,1590,0,,,,,,,,,,,,,,,
2959884,1501039062427,3.21,,-0.01,0.11,1.09,-3,-4,2,0,1560,0,,,,,,,,,,,,,,,
2959894,1501039062437,,,,,,,,,0,1530,0,,,,,,,,,,,,,,,
2959904,1501039062447,,,,,,,,,0,1440,0,,,,,,,,,,,,,,,
2959914,1501039062457,,,,,,,,,0,1605,0,,,,,,,,,,,,,,,
2959924,1501039062467,3.2,,0.01,0.1,1.04,-2,-7,3,0,1680,0,,,,,,,,,,,,,,,
2959934,1501039062477,,,,,,,,,0,1650,0,,,,,,,,,,,,,,,
2959944,1501039062487,,,,,,,,,0,1605,0,36.113647,-115.146088,0.0,6.311,2043.2,9,3,1.9,0,0.0,-1,0.0,0.0,0.0,0
2959954,1501039062497,,,,,,,,,0,1575,0,,,,,,,,,,,,,,,
2959964,1501039062507,3.21,,0.01,0.05,1.02,-2,-5,4,0,1545,0,,,,,,,,,,,,,,,
2959974,1501039062517,,,,,,,,,0,1515,0,,,,,,,,,,,,,,,
2959984,1501039062527,,,,,,,,,0,1575,0,,,,,,,,,,,,,,,
2959994,1501039062537,,,,,,,,,0,1650,0,,,,,,,,,,,,,,,
2960004,1501039062547,3.22,,0.0,0.02,0.99,-1,-8,3,0,1620,0,,,,,,,,,,,,,,,
2960014,1501039062557,,,,,,,,,0,1590,0,,,,,,,,,,,,,,,
2960024,1501039062567,,,,,,,,,0,1560,0,,,,,,,,,,,,,,,
2960034,1501039062577,,,,,,,,,0,1515,0,,,,,,,,,,,,,,,
2960044,1501039062587,3.24,4.51,0.01,0.0,1.04,-2,-7,3,0,1485,0,36.113647,-115.146088,0.0,6.311,2043.2,9,3,1.9,0,0.0,-1,0.0,0.0,0.0,0
2960054,1501039062597,,,,,,,,,0,1410,0,,,,,,,,,,,,,,,
2960064,1501039062607,,,,,,,,,0,1575,0,,,,,,,,,,,,,,,
2960074,1501039062617,,,,,,,,,0,1635,0,,,,,,,,,,,,,,,
2960084,1501039062627,3.23,,-0.0,-0.03,1.02,-1,-5,4,0,1620,0,,,,,,,,,,,,,,,
2960094,1501039062637,,,,,,,,,0,1575,0,,,,,,,,,,,,,,,
2960104,1501039062647,,,,,,,,,0,1545,0,,,,,,,,,,,,,,,
2960114,1501039062657,,,,,,,,,0,1515,0,,,,,,,,,,,,,,,
2960124,1501039062667,3.23,,0.0,-0.01,1.05,-1,-6,5,0,1470,0,,,,,,,,,,,,,,,
2960134,1501039062677,,,,,,,,,0,1395,0,,,,,,,,,,,,,,,
2960144,1501039062687,,,,,,,,,0,1560,0,36.113647,-115.146088,0.0,6.311,2043.2,9,3,1.9,0,0.0,-1,0.0,0.0,0.0,0
2960154,1501039062696,,,,,,,,,0,1635,0,,,,,,,,,,,,,,,
2960164,1501039062706,3.26,,0.0,-0.04,1.06,-2,-3,5,0,1620,0,,,,,,,,,,,,,,,
2960174,1501039062716,,,,,,,,,0,1575,0,,,,,,,,,,,,,,,
2960184,1501039062726,,,,,,,,,0,1545,0,,,,,,,,,,,,,,,
2960194,1501039062736,,,,,,,,,0,1500,0,,,,,,,,,,,,,,,
2960204,1501039062746,3.26,,0.02,-0.02,1.04,-2,-4,5,0,1470,0,,,,,,,,,,,,,,,
2960214,1501039062756,,,,,,,,,0,1395,0,,,,,,,,,,,,,,,
2960224,1501039062766,,,,,,,,,0,1560,0,,,,,,,,,,,,,,,
2960234,1501039062776,,,,,,,,,0,1635,0,,,,,,,,,,,,,,,
2960244,1501039062786,3.25,,0.01,-0.05,1.1,-2,-4,4,0,1620,0,36.113647,-115.146088,0.0,6.311,2043.2,9,3,1.9,0,0.0,-1,0.0,0.0,0.0,0
2960254,1501039062796,,,,,,,,,0,1575,0,,,,,,,,,,,,,,,
2960264,1501039062806,,,,,,,,,0,1545,0,,,,,,,,,,,,,,,
2960274,1501039062816,,,,,,,,,0,1515,0,,,,,,,,,,,,,,,
2960284,1501039062826,3.24,,0.01,-0.04,1.14,-2,-5,5,0,1470,0,,,,,,,,,,,,,,,
2960294,1501039062836,,,,,,,,,0,1395,0,,,,,,,,,,,,,,,
2960304,1501039062846,,,,,,,,,0,1665,0,,,,,,,,,,,,,,,
2960314,1501039062856,,,,,,,,,0,1635,0,,,,,,,,,,,,,,,
2960324,1501039062866,3.21,,-0.02,0.0,1.09,-2,-5,3,0,1605,0,,,,,,,,,,,,,,,
2960334,1501039062876,,,,,,,,,0,1560,0,,,,,,,,,,,,,,,
2960344,1501039062886,,,,,,,,,0,1530,0,36.113647,-115.146088,0.0,6.311,2043.2,9,3,1.9,0,0.0,-1,0.0,0.0,0.0,0
2960354,1501039062896,,,,,,,,,0,1500,0,,,,,,,,,,,,,,,
2960364,1501039062900,3.2,,-0.01,0.02,1.01,-2,-4,2,0,1425,0,,,,,,,,,,,,,,,
2960374,1501039062910,,,,,,,,,0,1590,0,,,,,,,,,,,,,,,
2960384,1501039062920,,,,,,,,,0,1665,0,,,,,,,,,,,,,,,
2960394,1501039062930,,,,,,,,,0,1650,0,,,,,,,,,,,,,,,
2960404,1501039062940,3.19,,-0.01,0.06,0.94,-2,-4,1,0,1620,0,,,,,,,,,,,,,,,
2960414,1501039062950,,,,,,,,,0,1590,0,,,,,,,,,,,,,,,
2960424,1501039062960,,,,,,,,,0,1560,0,,,,,,,,,,,,,,,
2960434,1501039062970,,,,,,,,,0,1515,0,,,,,,,,,,,,,,,
2960444,1501039062980,3.15,,0.01,0.03,0.87,-2,-5,2,0,1440,0,36.113647,-115.146088,0.0,6.311,2043.2,9,3,1.9,0,0.0,-1,0.0,0.0,0.0,0
2960454,1501039062990,,,,,,,,,0,1605,0,,,,,,,,,,,,,,,
2960464,1501039063000,,,,,,,,,0,1665,0,,,,,,,,,,,,,,,
2960474,1501039063010,,,,,,,,,0,1650,0,,,,,,,,,,,,,,,
2960484,1501039063020,3.12,,0.04,-0.01,0.88,-2,-6,3,0,1575,0,,,,,,,,,,,,,,,
2960494,1501039063030,,,,,,,,,0,1545,0,,,,,,,,,,,,,,,
2960504,1501039063040,,,,,,,,,0,1515,0,,,,,,,,,,,,,,,
2960514,1501039063050,,,,,,,,,0,1440,0,,,,,,,,,,,,,,,
2960524,1501039063060,3.17,,0.04,-0.03,0.88,-1,-5,3,0,1590,0,,,,,,,,,,,,,,,
2960534,1501039063070,,,,,,,,,0,1665,0,,,,,,,,,,,,,,,
2960544,1501039063080,,,,,,,,,0,1635,0,36.113647,-115.146088,0.0,6.311,2043.2,9,3,1.9,0,0.0,-1,0.0,0.0,0.0,0
2960554,1501039063096,,,,,,,,,0,1620,0,,,,,,,,,,,,,,,
2960564,1501039063106,3.17,,0.04,-0.04,0.95,-1,-5,3,0,1575,0,,,,,,,,,,,,,,,
2960574,1501039063116,,,,,,,,,0,1545,0,,,,,,,,,,,,,,,
2960584,1501039063126,,,,,,,,,0,1515,0,,,,,,,,,,,,,,,
2960594,1501039063136,,,,,,,,,0,1440,0,,,,,,,,,,,,,,,
2960604,1501039063146,3.17,,0.03,-0.04,1.04,-2,-4,4,0,1590,0,,,,,,,,,,,,,,,
2960614,1501039063156,,,,,,,,,0,1650,0,,,,,,,,,,,,,,,
2960624,1501039063166,,,,,,,,,0,1635,0,,,,,,,,,,,,,,,
2960634,1501039063176,,,,,,,,,0,1605,0,,,,,,,,,,,,,,,
2960644,1501039063186,3.16,,0.03,-0.04,1.01,-1,-3,3,0,1560,0,36.113647,-115.146088,0.0,6.311,2043.2,9,3,1.9,0,0.0,-1,0.0,0.0,0.0,0
2960654,1501039063196,,,,,,,,,0,1530,0,,,,,,,,,,,,,,,
2960664,1501039063206,,,,,,,,,0,1500,0,,,,,,,,,,,,,,,
2960674,1501039063216,,,,,,,,,0,1425,0,,,,,,,,,,,,,,,
2960684,1501039063226,3.12,,0.02,-0.03,1.07,-1,-5,3,0,1650,0,,,,,,,,,,,,,,,
2960694,1501039063236,,,,,,,,,0,1635,0,,,,,,,,,,,,,,,
2960704,1501039063246,,,,,,,,,0,1590,0,,,,,,,,,,,,,,,
2960714,1501039063256,,,,,,,,,0,1560,0,,,,,,,,,,,,,,,
2960724,1501039063266,3.19,,0.0,0.01,0.99,-1,-4,2,0,1530,0,,,,,,,,,,,,,,,
2960734,1501039063276,,,,,,,,,0,1500,0,,,,,,,,,,,,,,,
2960744,1501039063286,,,,,,,,,0,1425,0,36.113647,-115.146088,0.0,6.311,2043.2,9,3,1.9,0,0.0,-1,0.0,0.0,0.0,0
2960754,1501039063296,,,,,,,,,0,1590,0,,,,,,,,,,,,,,,
2960764,1501039063306,3.22,,0.0,0.04,0.95,-1,-5,1,0,1650,0,,,,,,,,,,,,,,,
2960774,1501039063316,,,,,,,,,0,1635,0,,,,,,,,,,,,,,,
2960784,1501039063326,,,,,,,,,0,1605,0,,,,,,,,,,,,,,,
2960794,1501039063336,,,,,,,,,0,1560,0,,,,,,,,,,,,,,,
