"Interval"|"ms"|0|0|1,"Utc"|"ms"|0|0|1,"Analog1"|""|0.0|5.0|25,"Battery"|"Volts"|0.0|20.0|1,"AccelX"|"G"|-3.0|3.0|25,"AccelY"|"G"|-3.0|3.0|25,"AccelZ"|"G"|-3.0|3.0|25,"Yaw"|"Deg/Sec"|-120|120|25,"Pitch"|"Deg/Sec"|-120|120|25,"Roll"|"Deg/Sec"|-120|120|25,"RPM"|""|0|10000|100,"EngineRPM"|""|0|10000|100,"AxleRpm"|""|0|10000|100,"Latitude"|"Degrees"|-180.0|180.0|10,"Longitude"|"Degrees"|-180.0|180.0|10,"Speed"|"mph"|0.0|150.0|10,"Distance"|"mi"|0.0|0.0|10,"Altitude"|"ft"|0.0|4000.0|10,"GPSSats"|""|0|20|10,"GPSQual"|""|0|5|10,"GPSDOP"|""|0.0|20.0|10,"LapCount"|""|0|0|10,"LapTime"|"Min"|0.0|0.0|10,"Sector"|""|0|0|10,"SectorTime"|"Min"|0.0|0.0|10,"PredTime"|"Min"|0.0|0.0|10,"ElapsedTime"|"Min"|0.0|0.0|10,"CurrentLap"|""|0|0|10
2819434,1501038921975,,,,,,,,,0,1575,0,,,,,,,,,,,,,,,
2819444,1501038921985,3.21,,-0.03,-0.03,1.03,-2,-8,4,0,1545,0,36.113674,-115.145653,0.0,6.001,2038.7,9,3,1.9,0,0.0,-1,0.0,0.0,0.0,0
2819454,1501038921995,,,,,,,,,0,1500,0,,,,,,,,,,,,,,,
2819464,1501038921999,,,,,,,,,0,1425,0,,,,,,,,,,,,,,,
2819474,1501038922009,,,,,,,,,0,1590,0,,,,,,,,,,,,,,,
2819484,1501038922019,3.24,,0.0,-0.04,0.96,-2,-8,3,0,1665,0,,,,,,,,,,,,,,,
2819494,1501038922029,,,,,,,,,0,1635,0,,,,,,,,,,,,,,,
2819504,1501038922039,,,,,,,,,0,1605,0,,,,,,,,,,,,,,,
2819514,1501038922049,,,,,,,,,0,1575,0,,,,,,,,,,,,,,,
2819524,1501038922059,3.22,,0.01,-0.06,0.94,-2,-8,3,0,1530,0,,,,,,,,,,,,,,,
2819534,1501038922069,,,,,,,,,0,1515,0,,,,,,,,,,,,,,,
2819544,1501038922079,,,,,,,,,0,1425,0,36.113674,-115.145653,0.0,6.001,2038.8,9,3,1.9,0,0.0,-1,0.0,0.0,0.0,0
2819554,1501038922093,,,,,,,,,0,1590,0,,,,,,,,,,,,,,,
2819564,1501038922103,3.23,,0.03,-0.04,0.87,-2,-9,3,0,1665,0,,,,,,,,,,,,,,,
2819574,1501038922113,,,,,,,,,0,1605,0,,,,,,,,,,,,,,,
2819584,1501038922123,,,,,,,,,0,1575,0,,,,,,,,,,,,,,,
2819594,1501038922133,,,,,,,,,0,1545,0,,,,,,,,,,,,,,,
2819604,1501038922143,3.18,,0.0,-0.06,0.91,-2,-7,3,0,1500,0,,,,,,,,,,,,,,,
2819614,1501038922153,,,,,,,,,0,1440,0,,,,,,,,,,,,,,,
2819624,1501038922163,,,,,,,,,0,1590,0,,,,,,,,,,,,,,,
2819634,1501038922173,,,,,,,,,0,1665,0,,,,,,,,,,,,,,,
2819644,1501038922183,3.2,,-0.04,-0.07,0.88,-1,-4,3,0,1635,0,36.113674,-115.145653,0.0,6.001,2039.0,9,3,1.9,0,0.0,-1,0.0,0.0,0.0,0
2819654,1501038922195,,,,,,,,,0,1605,0,,,,,,,,,,,,,,,
2819664,1501038922205,,,,,,,,,0,1575,0,,,,,,,,,,,,,,,
2819674,1501038922215,,,,,,,,,0,1545,0,,,,,,,,,,,,,,,
2819684,1501038922225,3.19,,-0.03,-0.06,0.92,-1,-2,3,0,1500,0,,,,,,,,,,,,,,,
2819694,1501038922235,,,,,,,,,0,1425,0,,,,,,,,,,,,,,,
2819704,1501038922245,,,,,,,,,0,1590,0,,,,,,,,,,,,,,,
2819714,1501038922255,,,,,,,,,0,1665,0,,,,,,,,,,,,,,,
2819724,1501038922265,3.17,,-0.05,-0.05,0.88,-1,0,4,0,1650,0,,,,,,,,,,,,,,,
2819734,1501038922275,,,,,,,,,0,1590,0,,,,,,,,,,,,,,,
2819744,1501038922285,,,,,,,,,0,1575,0,36.113674,-115.145653,0.0,6.001,2039.2,9,3,1.9,0,0.0,-1,0.0,0.0,0.0,0
2819754,1501038922295,,,,,,,,,0,1530,0,,,,,,,,,,,,,,,
2819764,1501038922305,3.17,,-0.03,-0.02,1.01,-2,-0,5,0,1515,0,,,,,,,,,,,,,,,
2819774,1501038922315,,,,,,,,,0,1425,0,,,,,,,,,,,,,,,
2819784,1501038922325,,,,,,,,,0,1665,0,,,,,,,,,,,,,,,
2819794,1501038922335,,,,,,,,,0,1635,0,,,,,,,,,,,,,,,
2819804,1501038922345,3.17,,-0.04,-0.03,1.0,-1,1,4,0,1590,0,,,,,,,,,,,,,,,
2819814,1501038922355,,,,,,,,,0,1575,0,,,,,,,,,,,,,,,
2819824,1501038922365,,,,,,,,,0,1530,0,,,,,,,,,,,,,,,
2819834,1501038922375,,,,,,,,,0,1515,0,,,,,,,,,,,,,,,
2819844,1501038922385,3.19,,-0.06,0.0,0.96,-1,-1,3,0,1425,0,36.113674,-115.145653,0.0,6.001,2039.4,9,3,1.9,0,0.0,-1,0.0,0.0,0.0,0
2819854,1501038922395,,,,,,,,,0,1605,0,,,,,,,,,,,,,,,
2819864,1501038922405,,,,,,,,,0,1650,0,,,,,,,,,,,,,,,
2819874,1501038922415,,,,,,,,,0,1635,0,,,,,,,,,,,,,,,
2819884,1501038922425,3.2,,-0.02,0.01,0.96,-1,-2,4,0,1590,0,,,,,,,,,,,,,,,
2819894,1501038922435,,,,,,,,,0,1575,0,,,,,,,,,,,,,,,
2819904,1501038922445,,,,,,,,,0,1545,0,,,,,,,,,,,,,,,
2819914,1501038922455,,,,,,,,,0,1500,0,,,,,,,,,,,,,,,
2819924,1501038922465,3.18,,-0.0,-0.04,0.94,-1,-4,4,0,1425,0,,,,,,,,,,,,,,,
2819934,1501038922475,,,,,,,,,0,1590,0,,,,,,,,,,,,,,,
2819944,1501038922485,,,,,,,,,0,1665,0,36.113674,-115.145653,0.0,6.001,2039.4,9,3,1.9,0,0.0,-1,0.0,0.0,0.0,0
2819954,1501038922494,,,,,,,,,0,1635,0,,,,,,,,,,,,,,,
2819964,1501038922504,3.2,,0.02,-0.04,0.93,-1,-6,3,0,1605,0,,,,,,,,,,,,,,,
2819974,1501038922514,,,,,,,,,0,1575,0,,,,,,,,,,,,,,,
2819984,1501038922524,,,,,,,,,0,1545,0,,,,,,,,,,,,,,,
2819994,1501038922534,,,,,,,,,0,1500,0,,,,,,,,,,,,,,,
2820004,1501038922544,3.16,,0.02,-0.03,0.9,-2,-7,3,0,1590,0,,,,,,,,,,,,,,,
2820014,1501038922554,,,,,,,,,0,1665,0,,,,,,,,,,,,,,,
2820024,1501038922564,,,,,,,,,0,1635,0,,,,,,,,,,,,,,,
2820034,1501038922574,,,,,,,,,0,1605,0,,,,,,,,,,,,,,,
2820044,1501038922584,3.21,4.51,-0.01,-0.03,0.95,-2,-6,4,0,1575,0,36.113674,-115.145653,0.0,6.001,2039.4,9,3,1.9,0,0.0,-1,0.0,0.0,0.0,0
2820054,1501038922594,,,,,,,,,0,1545,0,,,,,,,,,,,,,,,
2820064,1501038922604,,,,,,,,,0,1515,0,,,,,,,,,,,,,,,
2820074,1501038922614,,,,,,,,,0,1425,0,,,,,,,,,,,,,,,
2820084,1501038922624,3.23,,-0.02,-0.03,0.95,-1,-5,4,0,1590,0,,,,,,,,,,,,,,,
2820094,1501038922634,,,,,,,,,0,1665,0,,,,,,,,,,,,,,,
2820104,1501038922644,,,,,,,,,0,1635,0,,,,,,,,,,,,,,,
2820114,1501038922654,,,,,,,,,0,1605,0,,,,,,,,,,,,,,,
2820124,1501038922664,3.21,,-0.02,-0.04,0.96,-1,-4,4,0,1575,0,,,,,,,,,,,,,,,
2820134,1501038922674,,,,,,,,,0,1545,0,,,,,,,,,,,,,,,
2820144,1501038922684,,,,,,,,,0,1515,0,36.113674,-115.145653,0.0,6.001,2039.4,9,3,1.9,0,0.0,-1,0.0,0.0,0.0,0
2820154,1501038922694,,,,,,,,,0,1425,0,,,,,,,,,,,,,,,
2820164,1501038922704,3.23,,-0.0,-0.02,1.03,-2,-2,4,0,1590,0,,,,,,,,,,,,,,,
2820174,1501038922714,,,,,,,,,0,1665,0,,,,,,,,,,,,,,,
2820184,1501038922724,,,,,,,,,0,1635,0,,,,,,,,,,,,,,,
2820194,1501038922734,,,,,,,,,0,1605,0,,,,,,,,,,,,,,,
2820204,1501038922744,3.21,,-0.02,-0.03,1.01,-1,-3,3,0,1575,0,,,,,,,,,,,,,,,
2820214,1501038922754,,,,,,,,,0,1530,0,,,,,,,,,,,,,,,
2820224,1501038922764,,,,,,,,,0,1425,0,,,,,,,,,,,,,,,
2820234,1501038922774,,,,,,,,,0,1590,0,,,,,,,,,,,,,,,
2820244,1501038922784,3.21,,-0.02,-0.04,1.15,-1,-3,3,0,1665,0,36.113674,-115.145653,0.0,6.001,2039.4,9,3,1.9,0,0.0,-1,0.0,0.0,0.0,0
2820254,1501038922794,,,,,,,,,0,1635,0,,,,,,,,,,,,,,,
2820264,1501038922804,,,,,,,,,0,1590,0,,,,,,,,,,,,,,,
2820274,1501038922814,,,,,,,,,0,1575,0,,,,,,,,,,,,,,,
2820284,1501038922824,3.23,,-0.02,-0.01,1.1,-1,-4,3,0,1545,0,,,,,,,,,,,,,,,
2820294,1501038922834,,,,,,,,,0,1515,0,,,,,,,,,,,,,,,
2820304,1501038922844,,,,,,,,,0,1425,0,,,,,,,,,,,,,,,
2820314,1501038922854,,,,,,,,,0,1590,0,,,,,,,,,,,,,,,
2820324,1501038922864,3.23,,0.0,-0.03,1.13,-1,-6,3,0,1665,0,,,,,,,,,,,,,,,
2820334,1501038922874,,,,,,,,,0,1635,0,,,,,,,,,,,,,,,
2820344,1501038922884,,,,,,,,,0,1605,0,36.113674,-115.145653,0.0,6.001,2039.4,9,3,1.9,0,0.0,-1,0.0,0.0,0.0,0
2820354,1501038922894,,,,,,,,,0,1575,0,,,,,,,,,,,,,,,
2820364,1501038922904,3.23,,0.01,-0.03,1.07,-1,-5,3,0,1530,0,,,,,,,,,,,,,,,
2820374,1501038922914,,,,,,,,,0,1500,0,,,,,,,,,,,,,,,
2820384,1501038922924,,,,,,,,,0,1425,0,,,,,,,,,,,,,,,
2820394,1501038922934,,,,,,,,,0,1590,0,,,,,,,,,,,,,,,
2820404,1501038922944,3.23,,0.01,-0.03,1.03,-1,-7,3,0,1650,0,,,,,,,,,,,,,,,
2820414,1501038922954,,,,,,,,,0,1590,0,,,,,,,,,,,,,,,
2820424,1501038922964,,,,,,,,,0,1575,0,,,,,,,,,,,,,,,
2820434,1501038922974,,,,,,,,,0,1530,0,,,,,,,,,,,,,,,
2820444,1501038922984,3.17,,0.01,-0.05,1.05,-1,-5,4,0,1500,0,36.113674,-115.145653,0.0,6.001,2039.4,9,3,1.9,0,0.0,-1,0.0,0.0,0.0,0
2820454,1501038922994,,,,,,,,,0,1425,0,,,,,,,,,,,,,,,
2820464,1501038922996,,,,,,,,,0,1590,0,,,,,,,,,,,,,,,
2820474,1501038923006,,,,,,,,,0,1665,0,,,,,,,,,,,,,,,
2820484,1501038923016,3.22,,-0.02,-0.04,1.03,-1,-6,3,0,1635,0,,,,,,,,,,,,,,,
2820494,1501038923026,,,,,,,,,0,1605,0,,,,,,,,,,,,,,,
2820504,1501038923036,,,,,,,,,0,1575,0,,,,,,,,,,,,,,,
2820514,1501038923046,,,,,,,,,0,1545,0,,,,,,,,,,,,,,,
2820524,1501038923056,3.22,,-0.02,-0.05,1.04,-1,-3,3,0,1500,0,,,,,,,,,,,,,,,
2820534,1501038923066,,,,,,,,,0,1425,0,,,,,,,,,,,,,,,
2820544,1501038923076,,,,,,,,,0,1590,0,36.113674,-115.145653,0.0,6.001,2039.4,9,3,1.9,0,0.0,-1,0.0,0.0,0.0,0
2820554,1501038923094,,,,,,,,,0,1665,0,,,,,,,,,,,,,,,
2820564,1501038923104,3.21,,-0.04,-0.04,0.98,-1,-2,5,0,1635,0,,,,,,,,,,,,,,,
2820574,1501038923114,,,,,,,,,0,1590,0,,,,,,,,,,,,,,,
2820584,1501038923124,,,,,,,,,0,1575,0,,,,,,,,,,,,,,,
2820594,1501038923134,,,,,,,,,0,1530,0,,,,,,,,,,,,,,,
2820604,1501038923144,3.21,,-0.02,-0.02,1.08,-1,-3,5,0,1500,0,,,,,,,,,,,,,,,
2820614,1501038923154,,,,,,,,,0,1425,0,,,,,,,,,,,,,,,
2820624,1501038923164,,,,,,,,,0,1590,0,,,,,,,,,,,,,,,
2820634,1501038923174,,,,,,,,,0,1635,0,,,,,,,,,,,,,,,
2820644,1501038923184,3.15,,-0.04,-0.02,1.04,-2,-1,3,0,1605,0,36.113674,-115.145653,0.0,6.001,2039.4,9,3,1.9,0,0.0,-1,0.0,0.0,0.0,0
2820654,1501038923194,,,,,,,,,0,1575,0,,,,,,,,,,,,,,,
2820664,1501038923204,,,,,,,,,0,1530,0,,,,,,,,,,,,,,,
2820674,1501038923214,,,,,,,,,0,1515,0,,,,,,,,,,,,,,,
2820684,1501038923224,3.2,,-0.06,0.0,1.05,-1,-1,3,0,1425,0,,,,,,,,,,,,,,,
2820694,1501038923234,,,,,,,,,0,1590,0,,,,,,,,,,,,,,,
2820704,1501038923244,,,,,,,,,0,1665,0,,,,,,,,,,,,,,,
2820714,1501038923254,,,,,,,,,0,1635,0,,,,,,,,,,,,,,,
2820724,1501038923264,3.21,,-0.03,0.01,1.04,-1,-1,5,0,1605,0,,,,,,,,,,,,,,,
2820734,1501038923274,,,,,,,,,0,1575,0,,,,,,,,,,,,,,,
2820744,1501038923284,,,,,,,,,0,1545,0,36.113674,-115.145653,0.0,6.001,2039.4,9,3,1.9,0,0.0,-1,0.0,0.0,0.0,0
2820754,1501038923294,,,,,,,,,0,1500,0,,,,,,,,,,,,,,,
2820764,1501038923304,3.19,,-0.01,-0.03,1.0,-1,-4,4,0,1425,0,,,,,,,,,,,,,,,
2820774,1501038923314,,,,,,,,,0,1590,0,,,,,,,,,,,,,,,
2820784,1501038923324,,,,,,,,,0,1665,0,,,,,,,,,,,,,,,
2820794,1501038923334,,,,,,,,,0,1635,0,,,,,,,,,,,,,,,
2820804,1501038923344,3.21,,0.02,-0.05,0.98,-1,-6,3,0,1590,0,,,,,,,,,,,,,,,
2820814,1501038923354,,,,,,,,,0,1575,0,,,,,,,,,,,,,,,
2820824,1501038923364,,,,,,,,,0,1545,0,,,,,,,,,,,,,,,
2820834,1501038923374,,,,,,,,,0,1515,0,,,,,,,,,,,,,,,
2820844,1501038923384,3.2,,0.03,-0.03,0.93,-2,-7,3,0,1425,0,36.113674,-115.145653,0.0,6.001,2039.4,9,3,1.9,0,0.0,-1,0.0,0.0,0.0,0
2820854,1501038923394,,,,,,,,,0,1665,0,,,,,,,,,,,,,,,
2820864,1501038923404,,,,,,,,,0,1635,0,,,,,,,,,,,,,,,
2820874,1501038923414,,,,,,,,,0,1605,0,,,,,,,,,,,,,,,
2820884,1501038923424,3.21,,-0.0,-0.02,0.96,-2,-6,4,0,1575,0,,,,,,,,,,,,,,,
2820894,1501038923434,,,,,,,,,0,1545,0,,,,,,,,,,,,,,,
2820904,1501038923444,,,,,,,,,0,1515,0,,,,,,,,,,,,,,,
2820914,1501038923454,,,,,,,,,0,1425,0,,,,,,,,,,,,,,,
2820924,1501038923464,3.22,,-0.01,-0.03,0.94,-1,-5,3,0,1605,0,,,,,,,,,,,,,,,
2820934,1501038923474,,,,,,,,,0,1665,0,,,,,,,,,,,,,,,
2820944,1501038923484,,,,,,,,,0,1635,0,36.113674,-115.145653,0.0,6.001,2039.4,9,3,1.9,0,0.0,-1,0.0,0.0,0.0,0
2820954,1501038923493,,,,,,,,,0,1605,0,,,,,,,,,,,,,,,
2820964,1501038923503,3.22,,-0.02,-0.04,0.97,-1,-4,3,0,1575,0,,,,,,,,,,,,,,,
2820974,1501038923513,,,,,,,,,0,1545,0,,,,,,,,,,,,,,,
2820984,1501038923523,,,,,,,,,0,1515,0,,,,,,,,,,,,,,,
2820994,1501038923533,,,,,,,,,0,1440,0,,,,,,,,,,,,,,,
2821004,1501038923543,3.22,,0.0,-0.02,0.99,-2,-3,4,0,1605,0,,,,,,,,,,,,,,,
2821014,1501038923553,,,,,,,,,0,1665,0,,,,,,,,,,,,,,,
2821024,1501038923563,,,,,,,,,0,1635,0,,,,,,,,,,,,,,,
2821034,1501038923573,,,,,,,,,0,1605,0,,,,,,,,,,,,,,,
2821044,1501038923583,3.22,4.53,-0.02,-0.02,0.98,-2,-4,4,0,1575,0,36.113674,-115.145653,0.0,6.001,2039.4,9,3,1.9,0,0.0,-1,0.0,0.0,0.0,0
2821054,1501038923593,,,,,,,,,0,1545,0,,,,,,,,,,,,,,,
2821064,1501038923603,,,,,,,,,0,1515,0,,,,,,,,,,,,,,,
2821074,1501038923613,,,,,,,,,0,1605,0,,,,,,,,,,,,,,,
2821084,1501038923623,3.21,,-0.02,-0.03,1.12,-1,-3,4,0,1665,0,,,,,,,,,,,,,,,
2821094,1501038923633,,,,,,,,,0,1635,0,,,,,,,,,,,,,,,
2821104,1501038923643,,,,,,,,,0,1605,0,,,,,,,,,,,,,,,
2821114,1501038923653,,,,,,,,,0,1575,0,,,,,,,,,,,,,,,
2821124,1501038923663,3.22,,-0.02,-0.01,1.07,-1,-5,4,0,1545,0,,,,,,,,,,,,,,,
2821134,1501038923673,,,,,,,,,0,1515,0,,,,,,,,,,,,,,,
2821144,1501038923683,,,,,,,,,0,1440,0,36.113674,-115.145653,0.0,6.001,2039.4,9,3,1.9,0,0.0,-1,0.0,0.0,0.0,0
2821154,1501038923693,,,,,,,,,0,1605,0,,,,,,,,,,,,,,,
2821164,1501038923699,3.24,,-0.0,-0.03,1.04,-1,-6,3,0,1665,0,,,,,,,,,,,,,,,
2821174,1501038923709,,,,,,,,,0,1635,0,,,,,,,,,,,,,,,
2821184,1501038923719,,,,,,,,,0,1605,0,,,,,,,,,,,,,,,
2821194,1501038923729,,,,,,,,,0,1575,0,,,,,,,,,,,,,,,
2821204,1501038923739,3.23,,0.01,-0.04,1.01,-1,-6,4,0,1545,0,,,,,,,,,,,,,,,
2821214,1501038923749,,,,,,,,,0,1515,0,,,,,,,,,,,,,,,
2821224,1501038923759,,,,,,,,,0,1440,0,,,,,,,,,,,,,,,
2821234,1501038923769,,,,,,,,,0,1590,0,,,,,,,,,,,,,,,
2821244,1501038923779,3.19,,0.01,-0.02,0.98,-2,-8,4,0,1635,0,36.113674,-115.145653,0.0,6.001,2039.4,9,3,1.9,0,0.0,-1,0.0,0.0,0.0,0
2821254,1501038923793,,,,,,,,,0,1605,0,,,,,,,,,,,,,,,
2821264,1501038923803,,,,,,,,,0,1575,0,,,,,,,,,,,,,,,
2821274,1501038923813,,,,,,,,,0,1545,0,,,,,,,,,,,,,,,
2821284,1501038923823,3.19,,0.0,-0.05,1.04,-1,-6,4,0,1515,0,,,,,,,,,,,,,,,
2821294,1501038923833,,,,,,,,,0,1425,0,,,,,,,,,,,,,,,
2821304,1501038923843,,,,,,,,,0,1590,0,,,,,,,,,,,,,,,
2821314,1501038923853,,,,,,,,,0,1665,0,,,,,,,,,,,,,,,
2821324,1501038923863,3.23,,0.03,-0.05,1.02,-1,-7,4,0,1635,0,,,,,,,,,,,,,,,
2821334,1501038923873,,,,,,,,,0,1605,0,,,,,,,,,,,,,,,
2821344,1501038923883,,,,,,,,,0,1575,0,36.113674,-115.145653,0.0,6.001,2039.4,9,3,1.9,0,0.0,-1,0.0,0.0,0.0,0
2821354,1501038923895,,,,,,,,,0,1530,0,,,,,,,,,,,,,,,
2821364,1501038923905,3.2,,0.13,-0.03,1.11,-1,-9,4,0,1500,0,,,,,,,,,,,,,,,
2821374,1501038923915,,,,,,,,,0,1410,0,,,,,,,,,,,,,,,
2821384,1501038923925,,,,,,,,,0,1560,0,,,,,,,,,,,,,,,
2821394,1501038923935,,,,,,,,,0,1635,0,,,,,,,,,,,,,,,
2821404,1501038923945,3.17,,0.2,-0.04,1.15,-1,-13,6,0,1605,0,,,,,,,,,,,,,,,
2821414,1501038923955,,,,,,,,,0,1545,0,,,,,,,,,,,,,,,
2821424,1501038923965,,,,,,,,,0,1500,0,,,,,,,,,,,,,,,
2821434,1501038923975,,,,,,,,,0,1440,560,,,,,,,,,,,,,,,
2821444,1501038923985,3.19,,0.3,-0.03,1.18,0,-19,6,0,1365,560,36.113674,-115.145653,0.0,6.001,2039.4,9,3,1.9,0,0.0,-1,0.0,0.0,0.0,0
2821454,1501038923995,,,,,,,,,0,1230,560,,,,,,,,,,,,,,,
2821464,1501038923997,,,,,,,,,0,1230,560,,,,,,,,,,,,,,,
2821474,1501038924007,,,,,,,,,0,1260,560,,,,,,,,,,,,,,,
2821484,1501038924017,3.12,,0.37,-0.02,1.13,2,-23,7,0,1275,560,,,,,,,,,,,,,,,
2821494,1501038924027,,,,,,,,,0,1215,560,,,,,,,,,,,,,,,
2821504,1501038924037,,,,,,,,,0,1155,560,,,,,,,,,,,,,,,
2821514,1501038924047,,,,,,,,,0,1155,560,,,,,,,,,,,,,,,
2821524,1501038924057,3.07,,0.43,-0.02,1.09,3,-23,6,0,1095,560,,,,,,,,,,,,,,,
2821534,1501038924067,,,,,,,,,0,1035,560,,,,,,,,,,,,,,,
2821544,1501038924077,,,,,,,,,0,1035,0,36.113674,-115.145653,0.0,6.001,2039.4,9,3,1.9,0,0.0,-1,0.0,0.0,0.0,0
2821554,1501038924091,,,,,,,,,0,990,0,,,,,,,,,,,,,,,
2821564,1501038924101,3.06,,0.35,-0.02,0.96,3,-19,6,0,990,0,,,,,,,,,,,,,,,
2821574,1501038924111,,,,,,,,,0,855,0,,,,,,,,,,,,,,,
2821584,1501038924121,,,,,,,,,0,1035,0,,,,,,,,,,,,,,,
2821594,1501038924131,,,,,,,,,0,1185,0,,,,,,,,,,,,,,,
2821604,1501038924141,3.12,,0.23,-0.02,0.91,2,-12,6,0,1185,0,,,,,,,,,,,,,,,
2821614,1501038924151,,,,,,,,,0,1185,0,,,,,,,,,,,,,,,
2821624,1501038924161,,,,,,,,,0,1170,0,,,,,,,,,,,,,,,
2821634,1501038924171,,,,,,,,,0,1185,0,,,,,,,,,,,,,,,
2821644,1501038924181,3.15,,0.16,-0.04,0.91,1,-6,5,0,1170,0,36.113674,-115.145653,0.0,6.001,2039.4,9,3,1.9,0,0.0,-1,0.0,0.0,0.0,0
2821654,1501038924195,,,,,,,,,0,1155,0,,,,,,,,,,,,,,,
2821664,1501038924205,,,,,,,,,0,1155,0,,,,,,,,,,,,,,,
2821674,1501038924215,,,,,,,,,0,1080,0,,,,,,,,,,,,,,,
2821684,1501038924225,3.11,,0.15,-0.04,0.95,1,-1,4,0,1230,0,,,,,,,,,,,,,,,
2821694,1501038924235,,,,,,,,,0,1350,0,,,,,,,,,,,,,,,
2821704,1501038924245,,,,,,,,,0,1350,0,,,,,,,,,,,,,,,
2821714,1501038924255,,,,,,,,,0,1335,420,,,,,,,,,,,,,,,
2821724,1501038924265,3.17,,0.17,-0.07,1.03,1,2,3,0,1335,420,,,,,,,,,,,,,,,
2821734,1501038924275,,,,,,,,,0,1320,420,,,,,,,,,,,,,,,
2821744,1501038924285,,,,,,,,,0,1320,420,36.113674,-115.145653,2.12,6.001,2040.9,9,3,1.9,0,0.0,-1,0.0,0.0,0.0,0
2821754,1501038924295,,,,,,,,,0,1305,420,,,,,,,,,,,,,,,
2821764,1501038924305,3.19,,0.21,-0.04,1.01,-0,0,3,0,1200,420,,,,,,,,,,,,,,,
2821774,1501038924315,,,,,,,,,0,1500,420,,,,,,,,,,,,,,,
2821784,1501038924325,,,,,,,,,0,1620,420,,,,,,,,,,,,,,,
2821794,1501038924335,,,,,,,,,0,1605,420,,,,,,,,,,,,,,,
2821804,1501038924345,3.2,,0.18,-0.04,0.95,-1,-2,4,0,1590,0,,,,,,,,,,,,,,,
2821814,1501038924355,,,,,,,,,0,1575,0,,,,,,,,,,,,,,,
2821824,1501038924365,,,,,,,,,0,1560,0,,,,,,,,,,,,,,,
2821834,1501038924375,,,,,,,,,0,1470,0,,,,,,,,,,,,,,,
2821844,1501038924385,3.18,,0.19,-0.02,0.9,-1,-4,4,0,1725,0,36.113674,-115.145653,2.36,6.001,2040.7,9,3,1.9,0,0.0,-1,0.0,0.0,0.0,0
2821854,1501038924395,,,,,,,,,0,1830,0,,,,,,,,,,,,,,,
2821864,1501038924405,,,,,,,,,0,1815,0,,,,,,,,,,,,,,,
2821874,1501038924415,,,,,,,,,0,1770,0,,,,,,,,,,,,,,,
2821884,1501038924425,3.12,,0.18,-0.02,0.93,-0,-6,2,0,1755,0,,,,,,,,,,,,,,,
2821894,1501038924435,,,,,,,,,0,1725,0,,,,,,,,,,,,,,,
2821904,1501038924445,,,,,,,,,0,1635,0,,,,,,,,,,,,,,,
2821914,1501038924455,,,,,,,,,0,1950,320,,,,,,,,,,,,,,,
2821924,1501038924465,3.18,,0.23,-0.05,0.92,-0,-10,1,0,1950,320,,,,,,,,,,,,,,,
2821934,1501038924475,,,,,,,,,0,1905,320,,,,,,,,,,,,,,,
2821944,1501038924485,,,,,,,,,0,1875,320,36.113674,-115.145653,2.53,6.001,2040.6,9,3,1.9,0,0.0,-1,0.0,0.0,0.0,0
2821954,1501038924494,,,,,,,,,0,1860,320,,,,,,,,,,,,,,,
2821964,1501038924504,3.2,,0.24,-0.08,1.01,-0,-9,1,0,1740,320,,,,,,,,,,,,,,,
2821974,1501038924514,,,,,,,,,0,1965,320,,,,,,,,,,,,,,,
2821984,1501038924524,,,,,,,,,0,2040,320,,,,,,,,,,,,,,,
2821994,1501038924534,,,,,,,,,0,1995,320,,,,,,,,,,,,,,,
2822004,1501038924544,3.19,,0.39,-0.06,1.1,0,-13,1,0,1965,320,,,,,,,,,,,,,,,
2822014,1501038924554,,,,,,,,,0,1935,320,,,,,,,,,,,,,,,
2822024,1501038924564,,,,,,,,,0,1815,320,,,,,,,,,,,,,,,
2822034,1501038924574,,,,,,,,,0,2040,320,,,,,,,,,,,,,,,
2822044,1501038924584,3.13,4.52,0.49,-0.05,1.26,-1,-15,1,0,2100,320,36.11367,-115.145653,2.79,6.002,2040.5,9,3,1.9,0,0.0,-1,0.0,0.0,0.0,0
2822054,1501038924594,,,,,,,,,0,2055,170,,,,,,,,,,,,,,,
2822064,1501038924604,,,,,,,,,0,2040,170,,,,,,,,,,,,,,,
2822074,1501038924614,,,,,,,,,0,2010,170,,,,,,,,,,,,,,,
2822084,1501038924624,3.19,,0.43,-0.01,1.26,-1,-14,3,0,1890,170,,,,,,,,,,,,,,,
2822094,1501038924634,,,,,,,,,0,2100,170,,,,,,,,,,,,,,,
2822104,1501038924644,,,,,,,,,0,2160,170,,,,,,,,,,,,,,,
2822114,1501038924654,,,,,,,,,0,2115,170,,,,,,,,,,,,,,,
2822124,1501038924664,3.18,,0.52,0.01,1.29,-2,-17,4,0,2100,170,,,,,,,,,,,,,,,
2822134,1501038924674,,,,,,,,,0,2055,170,,,,,,,,,,,,,,,
2822144,1501038924684,,,,,,,,,0,1980,10000000,36.11367,-115.145653,3.59,6.002,2040.6,9,3,1.9,0,0.0,-1,0.0,0.0,0.0,0
2822154,1501038924694,,,,,,,,,0,2235,0,,,,,,,,,,,,,,,
2822164,1501038924704,3.13,,0.44,0.03,1.32,-0,-12,4,0,2235,0,,,,,,,,,,,,,,,
2822174,1501038924714,,,,,,,,,0,2175,280,,,,,,,,,,,,,,,
2822184,1501038924724,,,,,,,,,0,2160,280,,,,,,,,,,,,,,,
2822194,1501038924734,,,,,,,,,0,2070,280,,,,,,,,,,,,,,,
2822204,1501038924744,3.14,,0.49,0.04,1.28,-1,-11,5,0,2235,280,,,,,,,,,,,,,,,
2822214,1501038924754,,,,,,,,,0,2310,280,,,,,,,,,,,,,,,
2822224,1501038924764,,,,,,,,,0,2280,280,,,,,,,,,,,,,,,
2822234,1501038924774,,,,,,,,,0,2235,280,,,,,,,,,,,,,,,
2822244,1501038924784,3.2,,0.45,0.01,1.2,1,-7,5,0,2220,280,36.11367,-115.145668,4.18,6.002,2040.4,9,3,1.9,0,0.0,-1,0.0,0.0,0.0,0
2822254,1501038924792,,,,,,,,,0,2325,280,,,,,,,,,,,,,,,
2822264,1501038924802,,,,,,,,,0,2415,280,,,,,,,,,,,,,,,
2822274,1501038924812,,,,,,,,,0,2370,280,,,,,,,,,,,,,,,
2822284,1501038924822,3.2,,0.42,0.02,1.15,1,-9,5,0,2355,480,,,,,,,,,,,,,,,
2822294,1501038924832,,,,,,,,,0,2310,480,,,,,,,,,,,,,,,
2822304,1501038924842,,,,,,,,,0,2415,480,,,,,,,,,,,,,,,
2822314,1501038924852,,,,,,,,,0,2505,480,,,,,,,,,,,,,,,
2822324,1501038924862,3.16,,0.35,0.01,1.11,1,-4,5,0,2460,480,,,,,,,,,,,,,,,
2822334,1501038924872,,,,,,,,,0,2445,480,,,,,,,,,,,,,,,
2822344,1501038924882,,,,,,,,,0,2400,480,36.11367,-115.145668,4.99,6.002,2040.4,9,3,1.9,0,0.0,-1,0.0,0.0,0.0,0
2822354,1501038924894,,,,,,,,,0,2490,480,,,,,,,,,,,,,,,
2822364,1501038924904,3.15,,0.39,0.02,1.14,1,-3,7,0,2580,480,,,,,,,,,,,,,,,
2822374,1501038924914,,,,,,,,,0,2520,1090,,,,,,,,,,,,,,,
2822384,1501038924924,,,,,,,,,0,2490,1090,,,,,,,,,,,,,,,
2822394,1501038924934,,,,,,,,,0,2475,1090,,,,,,,,,,,,,,,
2822404,1501038924944,3.18,,0.35,-0.01,0.99,1,-7,5,0,2550,1090,,,,,,,,,,,,,,,
2822414,1501038924954,,,,,,,,,0,2595,1090,,,,,,,,,,,,,,,
2822424,1501038924964,,,,,,,,,0,2565,1090,,,,,,,,,,,,,,,
2822434,1501038924974,,,,,,,,,0,2520,1090,,,,,,,,,,,,,,,
2822444,1501038924984,3.18,,0.35,0.05,1.02,1,-0,7,0,2460,1090,36.11367,-115.145668,5.57,6.002,2040.3,9,3,1.9,0,0.0,-1,0.0,0.0,0.0,0
2822454,1501038924994,,,,,,,,,0,2670,1090,,,,,,,,,,,,,,,
2822464,1501038924998,,,,,,,,,0,2655,110,,,,,,,,,,,,,,,
2822474,1501038925008,,,,,,,,,0,2610,110,,,,,,,,,,,,,,,
2822484,1501038925018,3.2,,0.46,0.0,1.11,1,-4,5,0,2550,110,,,,,,,,,,,,,,,
2822494,1501038925028,,,,,,,,,0,2625,110,,,,,,,,,,,,,,,
2822504,1501038925038,,,,,,,,,0,2715,110,,,,,,,,,,,,,,,
2822514,1501038925048,,,,,,,,,0,2655,110,,,,,,,,,,,,,,,
2822524,1501038925058,3.19,,0.4,0.07,0.93,1,-7,7,0,2625,110,,,,,,,,,,,,,,,
2822534,1501038925068,,,,,,,,,0,2550,110,,,,,,,,,,,,,,,
2822544,1501038925078,,,,,,,,,0,2760,120,36.11367,-115.145668,6.28,6.002,2040.2,9,3,1.9,0,0.0,-1,0.0,0.0,0.0,0
2822554,1501038925092,,,,,,,,,0,2730,120,,,,,,,,,,,,,,,
2822564,1501038925102,3.18,,0.37,0.03,0.85,1,-8,5,0,2685,120,,,,,,,,,,,,,,,
2822574,1501038925112,,,,,,,,,0,2625,120,,,,,,,,,,,,,,,
2822584,1501038925122,,,,,,,,,0,2715,120,,,,,,,,,,,,,,,
2822594,1501038925132,,,,,,,,,0,2760,120,,,,,,,,,,,,,,,
2822604,1501038925142,3.16,,0.37,-0.06,0.76,2,-7,3,0,2745,120,,,,,,,,,,,,,,,
2822614,1501038925152,,,,,,,,,0,2700,120,,,,,,,,,,,,,,,
2822624,1501038925162,,,,,,,,,0,2610,130,,,,,,,,,,,,,,,
2822634,1501038925172,,,,,,,,,0,2820,130,,,,,,,,,,,,,,,
2822644,1501038925182,3.22,,0.37,-0.0,1.0,2,-2,1,0,2775,130,36.113667,-115.145676,6.91,6.002,2040.1,9,3,1.9,0,0.0,-1,0.0,0.0,0.0,0
2822654,1501038925194,,,,,,,,,0,2730,130,,,,,,,,,,,,,,,
2822664,1501038925204,,,,,,,,,0,2685,130,,,,,,,,,,,,,,,
2822674,1501038925214,,,,,,,,,0,2775,130,,,,,,,,,,,,,,,
2822684,1501038925224,3.17,,0.39,0.06,1.16,-1,-1,6,0,2790,130,,,,,,,,,,,,,,,
2822694,1501038925234,,,,,,,,,0,2775,130,,,,,,,,,,,,,,,
2822704,1501038925244,,,,,,,,,0,2700,130,,,,,,,,,,,,,,,
2822714,1501038925254,,,,,,,,,0,2790,130,,,,,,,,,,,,,,,
2822724,1501038925264,3.23,,0.4,0.09,1.03,-0,-3,7,0,2835,130,,,,,,,,,,,,,,,
2822734,1501038925274,,,,,,,,,0,2820,130,,,,,,,,,,,,,,,
2822744,1501038925284,,,,,,,,,0,2745,130,36.113667,-115.145676,7.68,6.003,2040.1,9,3,1.9,0,0.0,-1,0.0,0.0,0.0,0
2822754,1501038925294,,,,,,,,,0,2685,140,,,,,,,,,,,,,,,
2822764,1501038925304,3.24,,0.37,0.15,0.96,-1,-6,10,0,2835,140,,,,,,,,,,,,,,,
2822774,1501038925314,,,,,,,,,0,2820,140,,,,,,,,,,,,,,,
2822784,1501038925324,,,,,,,,,0,2745,140,,,,,,,,,,,,,,,
2822794,1501038925334,,,,,,,,,0,2730,140,,,,,,,,,,,,,,,
2822804,1501038925344,3.22,,0.37,0.17,0.89,-2,-7,12,0,2805,140,,,,,,,,,,,,,,,
2822814,1501038925354,,,,,,,,,0,2850,140,,,,,,,,,,,,,,,
2822824,1501038925364,,,,,,,,,0,2790,150,,,,,,,,,,,,,,,
2822834,1501038925374,,,,,,,,,0,2745,150,,,,,,,,,,,,,,,
2822844,1501038925384,3.26,,0.39,0.19,0.92,-1,-4,12,0,2820,150,36.113667,-115.145676,8.35,6.003,2040.0,9,3,1.9,0,0.0,-1,0.0,0.0,0.0,0
2822854,1501038925394,,,,,,,,,0,2850,150,,,,,,,,,,,,,,,
2822864,1501038925404,,,,,,,,,0,2820,150,,,,,,,,,,,,,,,
2822874,1501038925414,,,,,,,,,0,2760,150,,,,,,,,,,,,,,,
2822884,1501038925424,3.24,,0.37,0.13,1.06,-1,1,14,0,2700,160,,,,,,,,,,,,,,,
2822894,1501038925434,,,,,,,,,0,2865,160,,,,,,,,,,,,,,,
2822904,1501038925444,,,,,,,,,0,2835,160,,,,,,,,,,,,,,,
2822914,1501038925454,,,,,,,,,0,2790,160,,,,,,,,,,,,,,,
2822924,1501038925464,3.21,,0.36,0.08,1.15,1,2,8,0,2700,160,,,,,,,,,,,,,,,
2822934,1501038925474,,,,,,,,,0,2895,160,,,,,,,,,,,,,,,
2822944,1501038925484,,,,,,,,,0,2850,170,36.113667,-115.145691,8.96,6.003,2039.9,9,3,1.9,0,0.0,-1,0.0,0.0,0.0,0
2822954,1501038925493,,,,,,,,,0,2820,170,,,,,,,,,,,,,,,
2822964,1501038925503,3.22,,0.4,0.03,1.27,-0,1,5,0,2745,170,,,,,,,,,,,,,,,
2822974,1501038925513,,,,,,,,,0,2835,170,,,,,,,,,,,,,,,
2822984,1501038925523,,,,,,,,,0,2850,170,,,,,,,,,,,,,,,
2822994,1501038925533,,,,,,,,,0,2820,170,,,,,,,,,,,,,,,
2823004,1501038925543,3.23,,0.36,0.05,1.25,-1,-1,6,0,2745,170,,,,,,,,,,,,,,,
2823014,1501038925553,,,,,,,,,0,2835,170,,,,,,,,,,,,,,,
2823024,1501038925563,,,,,,,,,0,2865,170,,,,,,,,,,,,,,,
2823034,1501038925573,,,,,,,,,0,2850,170,,,,,,,,,,,,,,,
2823044,1501038925583,3.19,4.52,0.31,0.07,1.0,-0,-4,5,0,2790,170,36.113667,-115.145691,9.57,6.003,2040.0,9,3,1.9,0,0.0,-1,0.0,0.0,0.0,0
2823054,1501038925593,,,,,,,,,0,2715,170,,,,,,,,,,,,,,,
2823064,1501038925603,,,,,,,,,0,2895,170,,,,,,,,,,,,,,,
2823074,1501038925613,,,,,,,,,0,2850,170,,,,,,,,,,,,,,,
2823084,1501038925623,3.21,,0.26,0.08,0.67,-0,-7,5,0,2805,170,,,,,,,,,,,,,,,
2823094,1501038925633,,,,,,,,,0,2715,170,,,,,,,,,,,,,,,
2823104,1501038925643,,,,,,,,,0,2880,170,,,,,,,,,,,,,,,
2823114,1501038925653,,,,,,,,,0,2865,180,,,,,,,,,,,,,,,
2823124,1501038925663,3.19,,0.3,-0.02,0.56,-1,-10,7,0,2835,180,,,,,,,,,,,,,,,
2823134,1501038925673,,,,,,,,,0,2760,180,,,,,,,,,,,,,,,
2823144,1501038925683,,,,,,,,,0,2865,180,36.113667,-115.145691,10.18,6.004,2040.1,9,3,1.9,0,0.0,-1,0.0,0.0,0.0,0
2823154,1501038925693,,,,,,,,,0,2865,180,,,,,,,,,,,,,,,
2823164,1501038925703,3.2,,0.38,-0.06,0.62,-1,-9,6,0,2850,180,,,,,,,,,,,,,,,
2823174,1501038925713,,,,,,,,,0,2775,180,,,,,,,,,,,,,,,
2823184,1501038925723,,,,,,,,,0,2865,180,,,,,,,,,,,,,,,
2823194,1501038925733,,,,,,,,,0,2895,180,,,,,,,,,,,,,,,
2823204,1501038925743,3.17,,0.36,0.0,0.86,-0,-4,8,0,2835,180,,,,,,,,,,,,,,,
2823214,1501038925753,,,,,,,,,0,2805,190,,,,,,,,,,,,,,,
2823224,1501038925763,,,,,,,,,0,2730,190,,,,,,,,,,,,,,,
2823234,1501038925773,,,,,,,,,0,2925,190,,,,,,,,,,,,,,,
2823244,1501038925783,3.18,,0.36,0.1,0.99,1,-1,5,0,2880,190,36.113667,-115.145706,10.88,6.004,2040.3,9,3,1.9,0,0.0,-1,0.0,0.0,0.0,0
2823254,1501038925793,,,,,,,,,0,2820,190,,,,,,,,,,,,,,,
2823264,1501038925803,,,,,,,,,0,2745,190,,,,,,,,,,,,,,,
2823274,1501038925813,,,,,,,,,0,2910,190,,,,,,,,,,,,,,,
2823284,1501038925823,3.19,,0.24,0.02,1.18,1,2,1,0,2880,190,,,,,,,,,,,,,,,
2823294,1501038925833,,,,,,,,,0,2790,190,,,,,,,,,,,,,,,
2823304,1501038925843,,,,,,,,,0,2790,190,,,,,,,,,,,,,,,
2823314,1501038925853,,,,,,,,,0,2880,200,,,,,,,,,,,,,,,
2823324,1501038925863,3.21,,0.2,-0.0,1.32,0,4,-0,0,2895,200,,,,,,,,,,,,,,,
2823334,1501038925873,,,,,,,,,0,2850,200,,,,,,,,,,,,,,,
2823344,1501038925883,,,,,,,,,0,2805,200,36.113667,-115.145706,11.45,6.004,2040.4,9,3,1.9,0,0.0,-1,0.0,0.0,0.0,0
2823354,1501038925893,,,,,,,,,0,2865,200,,,,,,,,,,,,,,,
2823364,1501038925903,3.24,,0.23,0.01,1.2,-1,2,-1,0,2880,200,,,,,,,,,,,,,,,
2823374,1501038925913,,,,,,,,,0,2850,200,,,,,,,,,,,,,,,
2823384,1501038925923,,,,,,,,,0,2790,200,,,,,,,,,,,,,,,
2823394,1501038925933,,,,,,,,,0,2850,200,,,,,,,,,,,,,,,
2823404,1501038925943,3.22,,0.21,0.02,0.98,0,1,-1,0,2925,200,,,,,,,,,,,,,,,
2823414,1501038925953,,,,,,,,,0,2865,200,,,,,,,,,,,,,,,
2823424,1501038925963,,,,,,,,,0,2805,200,,,,,,,,,,,,,,,
2823434,1501038925973,,,,,,,,,0,2730,200,,,,,,,,,,,,,,,
2823444,1501038925983,3.2,,0.17,0.01,0.77,-1,-2,3,0,2895,200,36.113667,-115.145714,11.96,6.004,2040.7,9,3,1.9,0,0.0,-1,0.0,0.0,0.0,0
2823454,1501038925993,,,,,,,,,0,2865,200,,,,,,,,,,,,,,,
2823464,1501038926003,,,,,,,,,0,2820,210,,,,,,,,,,,,,,,
2823474,1501038925995,,,,,,,,,0,2730,210,,,,,,,,,,,,,,,
2823484,1501038926005,3.18,,0.23,-0.09,0.59,-0,-7,3,0,2925,210,,,,,,,,,,,,,,,
2823494,1501038926015,,,,,,,,,0,2880,210,,,,,,,,,,,,,,,
2823504,1501038926025,,,,,,,,,0,2850,210,,,,,,,,,,,,,,,
2823514,1501038926035,,,,,,,,,0,2805,210,,,,,,,,,,,,,,,
2823524,1501038926045,3.21,,0.29,-0.11,0.55,-0,-10,2,0,2865,210,,,,,,,,,,,,,,,
2823534,1501038926055,,,,,,,,,0,2880,210,,,,,,,,,,,,,,,
2823544,1501038926065,,,,,,,,,0,2850,210,36.113667,-115.145714,12.55,6.005,2041.0,9,3,1.9,0,0.0,-1,0.0,0.0,0.0,0
2823554,1501038926091,,,,,,,,,0,2790,220,,,,,,,,,,,,,,,
2823564,1501038926101,3.25,,0.34,-0.11,0.64,-0,-7,3,0,2850,220,,,,,,,,,,,,,,,
2823574,1501038926111,,,,,,,,,0,2865,220,,,,,,,,,,,,,,,
2823584,1501038926121,,,,,,,,,0,2850,220,,,,,,,,,,,,,,,
2823594,1501038926131,,,,,,,,,0,2790,220,,,,,,,,,,,,,,,
2823604,1501038926141,3.2,,0.34,-0.08,0.84,-1,-1,5,0,2730,220,,,,,,,,,,,,,,,
2823614,1501038926151,,,,,,,,,0,2880,220,,,,,,,,,,,,,,,
2823624,1501038926161,,,,,,,,,0,2850,220,,,,,,,,,,,,,,,
2823634,1501038926171,,,,,,,,,0,2805,220,,,,,,,,,,,,,,,
2823644,1501038926181,3.2,,0.32,-0.04,0.99,0,2,3,0,2730,220,36.113667,-115.145729,13.17,6.005,2041.2,9,3,1.9,0,0.0,-1,0.0,0.0,0.0,0
2823654,1501038926191,,,,,,,,,0,2910,220,,,,,,,,,,,,,,,
2823664,1501038926201,,,,,,,,,0,2835,220,,,,,,,,,,,,,,,
2823674,1501038926211,,,,,,,,,0,2820,220,,,,,,,,,,,,,,,
2823684,1501038926221,3.23,,0.29,-0.1,1.12,-0,5,2,0,2775,230,,,,,,,,,,,,,,,
2823694,1501038926231,,,,,,,,,0,2850,230,,,,,,,,,,,,,,,
2823704,1501038926241,,,,,,,,,0,2865,230,,,,,,,,,,,,,,,
2823714,1501038926251,,,,,,,,,0,2835,230,,,,,,,,,,,,,,,
2823724,1501038926261,3.2,,0.29,-0.1,1.13,-2,4,0,0,2760,230,,,,,,,,,,,,,,,
2823734,1501038926271,,,,,,,,,0,2865,230,,,,,,,,,,,,,,,
2823744,1501038926281,,,,,,,,,0,2865,230,36.113667,-115.145729,13.62,6.006,2041.4,9,3,1.9,0,0.0,-1,0.0,0.0,0.0,0
2823754,1501038926295,,,,,,,,,0,2850,230,,,,,,,,,,,,,,,
2823764,1501038926305,3.16,,0.23,-0.03,0.96,-3,1,-1,0,2775,230,,,,,,,,,,,,,,,
2823774,1501038926315,,,,,,,,,0,2715,230,,,,,,,,,,,,,,,
2823784,1501038926325,,,,,,,,,0,2880,230,,,,,,,,,,,,,,,
2823794,1501038926335,,,,,,,,,0,2835,230,,,,,,,,,,,,,,,
2823804,1501038926345,3.19,,0.21,0.0,0.71,-2,-5,1,0,2805,230,,,,,,,,,,,,,,,
2823814,1501038926355,,,,,,,,,0,2715,240,,,,,,,,,,,,,,,
2823824,1501038926365,,,,,,,,,0,2895,240,,,,,,,,,,,,,,,
2823834,1501038926375,,,,,,,,,0,2835,240,,,,,,,,,,,,,,,
2823844,1501038926385,3.16,,0.26,-0.05,0.57,-3,-9,5,0,2790,240,36.113667,-115.145744,14.24,6.006,2041.7,9,3,1.9,0,0.0,-1,0.0,0.0,0.0,0
2823854,1501038926393,,,,,,,,,0,2760,240,,,,,,,,,,,,,,,
2823864,1501038926403,,,,,,,,,0,2820,240,,,,,,,,,,,,,,,
2823874,1501038926413,,,,,,,,,0,2850,240,,,,,,,,,,,,,,,
2823884,1501038926423,3.15,,0.34,-0.14,0.56,-4,-11,5,0,2805,240,,,,,,,,,,,,,,,
2823894,1501038926433,,,,,,,,,0,2745,240,,,,,,,,,,,,,,,
2823904,1501038926443,,,,,,,,,0,2835,240,,,,,,,,,,,,,,,
2823914,1501038926453,,,,,,,,,0,2850,240,,,,,,,,,,,,,,,
2823924,1501038926463,3.12,,0.32,-0.16,0.66,-3,-5,5,0,2790,240,,,,,,,,,,,,,,,
2823934,1501038926473,,,,,,,,,0,2775,240,,,,,,,,,,,,,,,
2823944,1501038926483,,,,,,,,,0,2685,240,36.113667,-115.145744,14.67,6.006,2041.8,9,3,1.9,0,0.0,-1,0.0,0.0,0.0,0
2823954,1501038926492,,,,,,,,,0,2850,240,,,,,,,,,,,,,,,
2823964,1501038926502,3.14,,0.29,-0.06,0.76,-2,-0,3,0,2820,240,,,,,,,,,,,,,,,
2823974,1501038926512,,,,,,,,,0,2760,240,,,,,,,,,,,,,,,
2823984,1501038926522,,,,,,,,,0,2685,240,,,,,,,,,,,,,,,
2823994,1501038926532,,,,,,,,,0,2850,240,,,,,,,,,,,,,,,
2824004,1501038926542,3.13,,0.23,-0.03,1.0,-2,4,0,0,2820,240,,,,,,,,,,,,,,,
2824014,1501038926552,,,,,,,,,0,2805,250,,,,,,,,,,,,,,,
2824024,1501038926562,,,,,,,,,0,2745,250,,,,,,,,,,,,,,,
2824034,1501038926572,,,,,,,,,0,2820,250,,,,,,,,,,,,,,,
2824044,1501038926582,3.17,4.52,0.23,-0.01,1.04,-3,3,0,0,2850,250,36.113667,-115.145752,15.2,6.007,2042.0,9,3,1.9,0,0.0,-1,0.0,0.0,0.0,0
2824054,1501038926592,,,,,,,,,0,2790,260,,,,,,,,,,,,,,,
2824064,1501038926602,,,,,,,,,0,2730,260,,,,,,,,,,,,,,,
2824074,1501038926612,,,,,,,,,0,2805,260,,,,,,,,,,,,,,,
2824084,1501038926622,3.16,,0.24,0.02,0.93,-3,-2,-1,0,2865,260,,,,,,,,,,,,,,,
2824094,1501038926632,,,,,,,,,0,2820,250,,,,,,,,,,,,,,,
2824104,1501038926642,,,,,,,,,0,2745,250,,,,,,,,,,,,,,,
2824114,1501038926652,,,,,,,,,0,2670,250,,,,,,,,,,,,,,,
2824124,1501038926662,3.15,,0.24,-0.03,0.8,-3,-7,0,0,2835,250,,,,,,,,,,,,,,,
2824134,1501038926672,,,,,,,,,0,2820,250,,,,,,,,,,,,,,,
2824144,1501038926682,,,,,,,,,0,2745,250,36.113667,-115.145752,15.37,6.007,2042.2,9,3,1.9,0,0.0,-1,0.0,0.0,0.0,0
2824154,1501038926692,,,,,,,,,0,2730,250,,,,,,,,,,,,,,,
2824164,1501038926702,3.17,,0.28,-0.09,0.68,-3,-10,1,0,2820,260,,,,,,,,,,,,,,,
2824174,1501038926712,,,,,,,,,0,2835,260,,,,,,,,,,,,,,,
2824184,1501038926722,,,,,,,,,0,2805,260,,,,,,,,,,,,,,,
2824194,1501038926732,,,,,,,,,0,2730,260,,,,,,,,,,,,,,,
2824204,1501038926742,3.22,,0.28,-0.12,0.71,-2,-7,3,0,2820,260,,,,,,,,,,,,,,,
2824214,1501038926752,,,,,,,,,0,2850,260,,,,,,,,,,,,,,,
2824224,1501038926762,,,,,,,,,0,2790,260,,,,,,,,,,,,,,,
2824234,1501038926772,,,,,,,,,0,2745,260,,,,,,,,,,,,,,,
2824244,1501038926782,3.23,,0.21,-0.06,0.93,-2,-3,6,0,2670,260,36.113663,-115.145767,15.94,6.008,2042.3,9,3,1.9,0,0.0,-1,0.0,0.0,0.0,0
2824254,1501038926792,,,,,,,,,0,2835,260,,,,,,,,,,,,,,,
2824264,1501038926802,,,,,,,,,0,2790,260,,,,,,,,,,,,,,,
2824274,1501038926812,,,,,,,,,0,2760,260,,,,,,,,,,,,,,,
2824284,1501038926822,3.22,,0.26,-0.04,1.09,0,-2,1,0,2730,270,,,,,,,,,,,,,,,
2824294,1501038926832,,,,,,,,,0,2790,270,,,,,,,,,,,,,,,
2824304,1501038926842,,,,,,,,,0,2835,270,,,,,,,,,,,,,,,
2824314,1501038926852,,,,,,,,,0,2775,270,,,,,,,,,,,,,,,
2824324,1501038926862,3.22,,0.24,0.0,1.15,-1,-1,0,0,2700,270,,,,,,,,,,,,,,,
2824334,1501038926872,,,,,,,,,0,2790,270,,,,,,,,,,,,,,,
2824344,1501038926882,,,,,,,,,0,2820,270,36.113663,-115.145782,16.28,6.008,2042.4,9,3,1.9,0,0.0,-1,0.0,0.0,0.0,0
2824354,1501038926892,,,,,,,,,0,2760,260,,,,,,,,,,,,,,,
2824364,1501038926902,3.24,,0.19,0.06,0.97,-1,-4,1,0,2775,260,,,,,,,,,,,,,,,
2824374,1501038926912,,,,,,,,,0,2655,260,,,,,,,,,,,,,,,
2824384,1501038926922,,,,,,,,,0,2850,260,,,,,,,,,,,,,,,
2824394,1501038926932,,,,,,,,,0,2790,270,,,,,,,,,,,,,,,
2824404,1501038926942,3.23,,0.2,0.06,0.74,-1,-8,2,0,2745,270,,,,,,,,,,,,,,,
2824414,1501038926952,,,,,,,,,0,2655,270,,,,,,,,,,,,,,,
2824424,1501038926962,,,,,,,,,0,2805,270,,,,,,,,,,,,,,,
2824434,1501038926972,,,,,,,,,0,2820,270,,,,,,,,,,,,,,,
2824444,1501038926982,3.25,,0.26,-0.01,0.66,-3,-10,4,0,2775,270,36.113663,-115.145782,16.66,6.009,2042.6,9,3,1.9,0,0.0,-1,0.0,0.0,0.0,0
2824454,1501038926992,,,,,,,,,0,2715,270,,,,,,,,,,,,,,,
2824464,1501038926996,,,,,,,,,0,2820,270,,,,,,,,,,,,,,,
2824474,1501038927006,,,,,,,,,0,2850,270,,,,,,,,,,,,,,,
2824484,1501038927016,3.16,,0.25,-0.02,0.75,-3,-6,6,0,2790,270,,,,,,,,,,,,,,,
2824494,1501038927026,,,,,,,,,0,2775,280,,,,,,,,,,,,,,,
2824504,1501038927036,,,,,,,,,0,2655,280,,,,,,,,,,,,,,,
2824514,1501038927046,,,,,,,,,0,2850,280,,,,,,,,,,,,,,,
2824524,1501038927056,3.08,,0.2,0.02,0.9,-1,0,6,0,2805,280,,,,,,,,,,,,,,,
2824534,1501038927066,,,,,,,,,0,2760,280,,,,,,,,,,,,,,,
2824544,1501038927076,,,,,,,,,0,2670,280,36.113663,-115.14579,17.04,6.009,2042.7,9,3,1.9,0,0.0,-1,0.0,0.0,0.0,0
2824554,1501038927092,,,,,,,,,0,2880,280,,,,,,,,,,,,,,,
2824564,1501038927102,3.16,,0.16,0.04,1.11,-1,2,1,0,2835,280,,,,,,,,,,,,,,,
2824574,1501038927112,,,,,,,,,0,2775,280,,,,,,,,,,,,,,,
2824584,1501038927122,,,,,,,,,0,2730,280,,,,,,,,,,,,,,,
2824594,1501038927132,,,,,,,,,0,2805,280,,,,,,,,,,,,,,,
2824604,1501038927142,3.22,,0.19,0.05,1.08,-3,1,3,0,2820,280,,,,,,,,,,,,,,,
2824614,1501038927152,,,,,,,,,0,2805,280,,,,,,,,,,,,,,,
2824624,1501038927162,,,,,,,,,0,2730,280,,,,,,,,,,,,,,,
2824634,1501038927172,,,,,,,,,0,2685,280,,,,,,,,,,,,,,,
2824644,1501038927182,3.22,,0.18,0.03,0.93,-2,-3,2,0,2850,280,36.113663,-115.145805,17.26,6.009,2042.8,9,3,1.9,0,0.0,-1,0.0,0.0,0.0,0
2824654,1501038927194,,,,,,,,,0,2805,280,,,,,,,,,,,,,,,
2824664,1501038927204,,,,,,,,,0,2760,280,,,,,,,,,,,,,,,
2824674,1501038927214,,,,,,,,,0,2685,280,,,,,,,,,,,,,,,
2824684,1501038927224,3.16,,0.2,0.03,0.72,-3,-6,6,0,2865,280,,,,,,,,,,,,,,,
2824694,1501038927234,,,,,,,,,0,2820,280,,,,,,,,,,,,,,,
2824704,1501038927244,,,,,,,,,0,2760,290,,,,,,,,,,,,,,,
2824714,1501038927254,,,,,,,,,0,2730,290,,,,,,,,,,,,,,,
2824724,1501038927264,3.21,,0.3,-0.06,0.62,-2,-9,4,0,2820,290,,,,,,,,,,,,,,,
2824734,1501038927274,,,,,,,,,0,2835,290,,,,,,,,,,,,,,,
2824744,1501038927284,,,,,,,,,0,2775,280,36.113663,-115.145805,17.52,6.01,2043.0,9,3,1.9,0,0.0,-1,0.0,0.0,0.0,0
2824754,1501038927292,,,,,,,,,0,2730,280,,,,,,,,,,,,,,,
2824764,1501038927302,3.26,,0.27,-0.11,0.62,-1,-5,6,0,2805,280,,,,,,,,,,,,,,,
2824774,1501038927312,,,,,,,,,0,2835,280,,,,,,,,,,,,,,,
2824784,1501038927322,,,,,,,,,0,2805,280,,,,,,,,,,,,,,,
2824794,1501038927332,,,,,,,,,0,2775,280,,,,,,,,,,,,,,,
2824804,1501038927342,3.22,,0.21,-0.04,0.74,-1,0,7,0,2685,280,,,,,,,,,,,,,,,
2824814,1501038927352,,,,,,,,,0,2865,290,,,,,,,,,,,,,,,
2824824,1501038927362,,,,,,,,,0,2805,290,,,,,,,,,,,,,,,
2824834,1501038927372,,,,,,,,,0,2775,290,,,,,,,,,,,,,,,
2824844,1501038927382,3.18,,0.22,-0.07,0.98,2,1,4,0,2685,290,36.113663,-115.145821,17.7,6.01,2043.1,9,3,1.9,0,0.0,-1,0.0,0.0,0.0,0
2824854,1501038927394,,,,,,,,,0,2820,290,,,,,,,,,,,,,,,
2824864,1501038927404,,,,,,,,,0,2850,290,,,,,,,,,,,,,,,
2824874,1501038927414,,,,,,,,,0,2805,290,,,,,,,,,,,,,,,
2824884,1501038927424,3.2,,0.2,0.03,1.09,-0,3,3,0,2745,290,,,,,,,,,,,,,,,
2824894,1501038927434,,,,,,,,,0,2835,290,,,,,,,,,,,,,,,
2824904,1501038927444,,,,,,,,,0,2865,290,,,,,,,,,,,,,,,
2824914,1501038927454,,,,,,,,,0,2805,300,,,,,,,,,,,,,,,
2824924,1501038927464,3.18,,0.18,-0.02,1.01,-1,-2,2,0,2745,300,,,,,,,,,,,,,,,
2824934,1501038927474,,,,,,,,,0,2715,300,,,,,,,,,,,,,,,
2824944,1501038927484,,,,,,,,,0,2880,300,36.113663,-115.145828,17.84,6.011,2043.4,9,3,1.9,0,0.0,-1,0.0,0.0,0.0,0
2824954,1501038927491,,,,,,,,,0,2850,300,,,,,,,,,,,,,,,
2824964,1501038927501,3.24,,0.16,-0.04,0.81,1,-6,3,0,2775,300,,,,,,,,,,,,,,,
2824974,1501038927511,,,,,,,,,0,2715,290,,,,,,,,,,,,,,,
2824984,1501038927521,,,,,,,,,0,2865,290,,,,,,,,,,,,,,,
2824994,1501038927531,,,,,,,,,0,2850,290,,,,,,,,,,,,,,,
2825004,1501038927541,3.21,,0.18,-0.05,0.67,0,-11,4,0,2790,290,,,,,,,,,,,,,,,
2825014,1501038927551,,,,,,,,,0,2715,300,,,,,,,,,,,,,,,
2825024,1501038927561,,,,,,,,,0,2835,300,,,,,,,,,,,,,,,
2825034,1501038927571,,,,,,,,,0,2865,300,,,,,,,,,,,,,,,
2825044,1501038927581,3.2,4.52,0.25,-0.07,0.54,-1,-14,5,0,2820,300,36.113663,-115.145828,18.29,6.011,2043.7,9,3,1.9,0,0.0,-1,0.0,0.0,0.0,0
2825054,1501038927591,,,,,,,,,0,2775,300,,,,,,,,,,,,,,,
2825064,1501038927601,,,,,,,,,0,2850,300,,,,,,,,,,,,,,,
2825074,1501038927611,,,,,,,,,0,2880,300,,,,,,,,,,,,,,,
2825084,1501038927621,3.21,,0.25,-0.07,0.61,-0,-11,6,0,2835,300,,,,,,,,,,,,,,,
2825094,1501038927631,,,,,,,,,0,2775,300,,,,,,,,,,,,,,,
2825104,1501038927641,,,,,,,,,0,2865,310,,,,,,,,,,,,,,,
2825114,1501038927651,,,,,,,,,0,2895,310,,,,,,,,,,,,,,,
2825124,1501038927661,3.21,,0.18,0.06,0.73,1,-5,8,0,2865,310,,,,,,,,,,,,,,,
2825134,1501038927671,,,,,,,,,0,2790,310,,,,,,,,,,,,,,,
2825144,1501038927681,,,,,,,,,0,2715,300,36.113663,-115.145844,18.7,6.012,2044.0,9,3,1.9,0,0.0,-1,0.0,0.0,0.0,0
2825154,1501038927693,,,,,,,,,0,2880,300,,,,,,,,,,,,,,,
2825164,1501038927703,3.11,,0.12,0.09,0.96,3,2,6,0,2850,300,,,,,,,,,,,,,,,
2825174,1501038927713,,,,,,,,,0,2835,310,,,,,,,,,,,,,,,
2825184,1501038927723,,,,,,,,,0,2715,310,,,,,,,,,,,,,,,
2825194,1501038927733,,,,,,,,,0,2910,310,,,,,,,,,,,,,,,
2825204,1501038927743,3.1,,0.09,0.04,1.1,2,6,4,0,2865,310,,,,,,,,,,,,,,,
2825214,1501038927753,,,,,,,,,0,2820,310,,,,,,,,,,,,,,,
2825224,1501038927763,,,,,,,,,0,2775,310,,,,,,,,,,,,,,,
2825234,1501038927773,,,,,,,,,0,2865,310,,,,,,,,,,,,,,,
2825244,1501038927783,3.23,,0.13,0.05,1.23,-0,7,5,0,2880,310,36.113663,-115.145859,18.61,6.012,2044.3,9,3,1.9,0,0.0,-1,0.0,0.0,0.0,0
2825254,1501038927793,,,,,,,,,0,2850,310,,,,,,,,,,,,,,,
2825264,1501038927803,,,,,,,,,0,2790,310,,,,,,,,,,,,,,,
2825274,1501038927813,,,,,,,,,0,2880,310,,,,,,,,,,,,,,,
2825284,1501038927823,3.24,,0.13,0.0,1.11,-0,3,2,0,2895,310,,,,,,,,,,,,,,,
2825294,1501038927833,,,,,,,,,0,2850,310,,,,,,,,,,,,,,,
2825304,1501038927843,,,,,,,,,0,2835,320,,,,,,,,,,,,,,,
2825314,1501038927853,,,,,,,,,0,2745,320,,,,,,,,,,,,,,,
2825324,1501038927863,3.18,,0.08,-0.02,0.95,0,-2,2,0,2925,320,,,,,,,,,,,,,,,
2825334,1501038927873,,,,,,,,,0,2865,310,,,,,,,,,,,,,,,
2825344,1501038927883,,,,,,,,,0,2820,310,36.113663,-115.145859,19.02,6.013,2044.4,9,3,1.9,0,0.0,-1,0.0,0.0,0.0,0
2825354,1501038927893,,,,,,,,,0,2730,310,,,,,,,,,,,,,,,
2825364,1501038927903,3.21,,0.13,-0.08,0.74,-1,-8,6,0,2895,310,,,,,,,,,,,,,,,
2825374,1501038927913,,,,,,,,,0,2865,310,,,,,,,,,,,,,,,
2825384,1501038927923,,,,,,,,,0,2805,310,,,,,,,,,,,,,,,
2825394,1501038927933,,,,,,,,,0,2730,310,,,,,,,,,,,,,,,
2825404,1501038927943,3.24,,0.21,-0.11,0.59,-0,-12,4,0,2895,310,,,,,,,,,,,,,,,
2825414,1501038927953,,,,,,,,,0,2910,310,,,,,,,,,,,,,,,
2825424,1501038927963,,,,,,,,,0,2850,320,,,,,,,,,,,,,,,
2825434,1501038927973,,,,,,,,,0,2805,320,,,,,,,,,,,,,,,
2825444,1501038927983,3.22,,0.27,-0.07,0.61,0,-12,4,0,2865,320,36.113663,-115.145866,19.42,6.014,2044.4,9,3,1.9,0,0.0,-1,0.0,0.0,0.0,0
2825454,1501038927993,,,,,,,,,0,2910,320,,,,,,,,,,,,,,,
2825464,1501038927995,,,,,,,,,0,2880,320,,,,,,,,,,,,,,,
2825474,1501038928005,,,,,,,,,0,2820,320,,,,,,,,,,,,,,,
2825484,1501038928015,3.22,,0.21,-0.05,0.64,1,-7,6,0,2895,320,,,,,,,,,,,,,,,
2825494,1501038928025,,,,,,,,,0,2910,320,,,,,,,,,,,,,,,
2825504,1501038928035,,,,,,,,,0,2850,320,,,,,,,,,,,,,,,
2825514,1501038928045,,,,,,,,,0,2835,320,,,,,,,,,,,,,,,
2825524,1501038928055,3.21,,0.18,0.04,0.82,1,-2,5,0,2745,320,,,,,,,,,,,,,,,
2825534,1501038928065,,,,,,,,,0,2925,320,,,,,,,,,,,,,,,
2825544,1501038928075,,,,,,,,,0,2895,320,36.113663,-115.145882,19.99,6.014,2044.5,9,3,1.9,0,0.0,-1,0.0,0.0,0.0,0
2825554,1501038928093,,,,,,,,,0,2820,320,,,,,,,,,,,,,,,
2825564,1501038928103,3.24,,0.13,0.05,1.03,2,4,1,0,2745,320,,,,,,,,,,,,,,,
2825574,1501038928113,,,,,,,,,0,2910,320,,,,,,,,,,,,,,,
2825584,1501038928123,,,,,,,,,0,2880,320,,,,,,,,,,,,,,,
2825594,1501038928133,,,,,,,,,0,2835,320,,,,,,,,,,,,,,,
2825604,1501038928143,3.11,,0.08,-0.02,1.21,1,6,-0,0,2745,320,,,,,,,,,,,,,,,
2825614,1501038928153,,,,,,,,,0,2925,320,,,,,,,,,,,,,,,
2825624,1501038928163,,,,,,,,,0,2895,320,,,,,,,,,,,,,,,
2825634,1501038928173,,,,,,,,,0,2895,320,,,,,,,,,,,,,,,
2825644,1501038928183,3.21,,0.05,0.02,1.2,0,6,-0,0,2820,330,36.113663,-115.145897,19.95,6.015,2044.5,9,3,1.9,0,0.0,-1,0.0,0.0,0.0,0
2825654,1501038928193,,,,,,,,,0,2895,330,,,,,,,,,,,,,,,
2825664,1501038928203,,,,,,,,,0,2925,330,,,,,,,,,,,,,,,
2825674,1501038928213,,,,,,,,,0,2895,330,,,,,,,,,,,,,,,
2825684,1501038928223,3.22,,0.09,0.0,1.19,-1,4,2,0,2805,330,,,,,,,,,,,,,,,
2825694,1501038928233,,,,,,,,,0,2910,330,,,,,,,,,,,,,,,
2825704,1501038928243,,,,,,,,,0,2910,320,,,,,,,,,,,,,,,
2825714,1501038928253,,,,,,,,,0,2895,320,,,,,,,,,,,,,,,
2825724,1501038928263,3.13,,0.06,0.04,0.99,-1,2,1,0,2820,320,,,,,,,,,,,,,,,
2825734,1501038928273,,,,,,,,,0,2760,320,,,,,,,,,,,,,,,
2825744,1501038928283,,,,,,,,,0,2910,320,36.113663,-115.145912,20.6,6.015,2044.5,9,3,1.9,0,0.0,-1,0.0,0.0,0.0,0
2825754,1501038928293,,,,,,,,,0,2895,320,,,,,,,,,,,,,,,
2825764,1501038928303,3.27,,0.07,-0.0,0.71,-1,-4,2,0,2850,330,,,,,,,,,,,,,,,
2825774,1501038928313,,,,,,,,,0,2760,330,,,,,,,,,,,,,,,
2825784,1501038928323,,,,,,,,,0,2955,330,,,,,,,,,,,,,,,
2825794,1501038928333,,,,,,,,,0,2895,330,,,,,,,,,,,,,,,
2825804,1501038928343,3.23,,0.12,-0.08,0.52,-2,-10,5,0,2835,330,,,,,,,,,,,,,,,
2825814,1501038928353,,,,,,,,,0,2775,330,,,,,,,,,,,,,,,
2825824,1501038928363,,,,,,,,,0,2940,330,,,,,,,,,,,,,,,
2825834,1501038928373,,,,,,,,,0,2925,330,,,,,,,,,,,,,,,
2825844,1501038928383,3.2,,0.18,-0.1,0.53,-4,-14,6,0,2880,330,36.113663,-115.145912,20.82,6.016,2044.5,9,3,1.9,0,0.0,-1,0.0,0.0,0.0,0
2825854,1501038928393,,,,,,,,,0,2790,340,,,,,,,,,,,,,,,
2825864,1501038928403,,,,,,,,,0,2970,340,,,,,,,,,,,,,,,
2825874,1501038928413,,,,,,,,,0,2925,340,,,,,,,,,,,,,,,
2825884,1501038928423,3.27,,0.27,-0.08,0.46,-4,-17,8,0,2925,330,,,,,,,,,,,,,,,
2825894,1501038928433,,,,,,,,,0,2835,330,,,,,,,,,,,,,,,
2825904,1501038928443,,,,,,,,,0,2940,330,,,,,,,,,,,,,,,
2825914,1501038928453,,,,,,,,,0,2955,330,,,,,,,,,,,,,,,
2825924,1501038928463,3.2,,0.35,-0.03,0.51,-4,-16,9,0,2910,330,,,,,,,,,,,,,,,
2825934,1501038928473,,,,,,,,,0,2850,330,,,,,,,,,,,,,,,
2825944,1501038928483,,,,,,,,,0,2925,330,36.113663,-115.14592,20.94,6.016,2044.5,9,3,1.9,0,0.0,-1,0.0,0.0,0.0,0
2825954,1501038928493,,,,,,,,,0,2940,330,,,,,,,,,,,,,,,
2825964,1501038928496,3.19,,0.33,0.05,0.59,-4,-11,8,0,2940,330,,,,,,,,,,,,,,,
2825974,1501038928506,,,,,,,,,0,2850,330,,,,,,,,,,,,,,,
2825984,1501038928516,,,,,,,,,0,2970,330,,,,,,,,,,,,,,,
2825994,1501038928526,,,,,,,,,0,2970,330,,,,,,,,,,,,,,,
2826004,1501038928536,3.22,,0.28,0.11,0.73,-1,-6,5,0,2940,340,,,,,,,,,,,,,,,
2826014,1501038928546,,,,,,,,,0,2895,340,,,,,,,,,,,,,,,
2826024,1501038928556,,,,,,,,,0,2970,340,,,,,,,,,,,,,,,
2826034,1501038928566,,,,,,,,,0,2985,340,,,,,,,,,,,,,,,
2826044,1501038928576,3.14,4.52,0.21,0.08,0.97,0,-4,3,0,2970,340,36.113663,-115.145935,21.15,6.017,2044.5,9,3,1.9,0,0.0,-1,0.0,0.0,0.0,0
2826054,1501038928592,,,,,,,,,0,2895,340,,,,,,,,,,,,,,,
2826064,1501038928602,,,,,,,,,0,3000,340,,,,,,,,,,,,,,,
2826074,1501038928612,,,,,,,,,0,3000,340,,,,,,,,,,,,,,,
2826084,1501038928622,3.19,,0.21,0.06,1.17,2,3,1,0,2985,330,,,,,,,,,,,,,,,
2826094,1501038928632,,,,,,,,,0,2910,330,,,,,,,,,,,,,,,
2826104,1501038928642,,,,,,,,,0,2835,330,,,,,,,,,,,,,,,
2826114,1501038928652,,,,,,,,,0,3045,340,,,,,,,,,,,,,,,
2826124,1501038928662,3.18,,0.12,0.04,1.33,3,9,-3,0,2985,340,,,,,,,,,,,,,,,
2826134,1501038928672,,,,,,,,,0,2940,340,,,,,,,,,,,,,,,
2826144,1501038928682,,,,,,,,,0,2865,340,36.113663,-115.14595,21.49,6.018,2044.5,9,3,1.9,0,0.0,-1,0.0,0.0,0.0,0
2826154,1501038928692,,,,,,,,,0,3015,340,,,,,,,,,,,,,,,
2826164,1501038928702,3.11,,0.01,0.02,1.45,4,12,-6,0,3015,340,,,,,,,,,,,,,,,
2826174,1501038928712,,,,,,,,,0,2955,340,,,,,,,,,,,,,,,
2826184,1501038928722,,,,,,,,,0,2880,340,,,,,,,,,,,,,,,
2826194,1501038928732,,,,,,,,,0,3075,340,,,,,,,,,,,,,,,
2826204,1501038928742,3.24,,-0.07,0.02,1.56,3,14,-7,0,3000,350,,,,,,,,,,,,,,,
2826214,1501038928752,,,,,,,,,0,2955,350,,,,,,,,,,,,,,,
2826224,1501038928762,,,,,,,,,0,2895,350,,,,,,,,,,,,,,,
2826234,1501038928772,,,,,,,,,0,3015,340,,,,,,,,,,,,,,,
2826244,1501038928782,3.15,,-0.16,-0.01,1.64,3,18,-7,0,2970,340,36.113663,-115.145958,21.66,6.018,2044.6,9,3,1.9,0,0.0,-1,0.0,0.0,0.0,0
2826254,1501038928794,,,,,,,,,0,2925,340,,,,,,,,,,,,,,,
2826264,1501038928804,,,,,,,,,0,2865,330,,,,,,,,,,,,,,,
2826274,1501038928814,,,,,,,,,0,2820,330,,,,,,,,,,,,,,,
2826284,1501038928824,3.12,,-0.39,0.03,1.71,2,23,-6,0,2745,330,,,,,,,,,,,,,,,
2826294,1501038928834,,,,,,,,,0,2745,320,,,,,,,,,,,,,,,
2826304,1501038928844,,,,,,,,,0,2685,320,,,,,,,,,,,,,,,
2826314,1501038928854,,,,,,,,,0,2670,320,,,,,,,,,,,,,,,
2826324,1501038928864,3.18,,-0.47,0.07,1.76,1,24,-4,0,2610,310,,,,,,,,,,,,,,,
2826334,1501038928874,,,,,,,,,0,2610,310,,,,,,,,,,,,,,,
2826344,1501038928884,,,,,,,,,0,2565,310,36.113659,-115.145973,21.77,6.019,2044.7,9,3,1.9,0,0.0,-1,0.0,0.0,0.0,0
2826354,1501038928894,,,,,,,,,0,2520,300,,,,,,,,,,,,,,,
2826364,1501038928904,3.19,,-0.42,0.06,1.56,1,20,-3,0,2505,300,,,,,,,,,,,,,,,
2826374,1501038928914,,,,,,,,,0,2475,300,,,,,,,,,,,,,,,
2826384,1501038928924,,,,,,,,,0,2475,300,,,,,,,,,,,,,,,
2826394,1501038928934,,,,,,,,,0,2460,300,,,,,,,,,,,,,,,
2826404,1501038928944,3.24,,-0.48,0.05,1.4,1,18,-4,0,2445,300,,,,,,,,,,,,,,,
2826414,1501038928954,,,,,,,,,0,2445,300,,,,,,,,,,,,,,,
2826424,1501038928964,,,,,,,,,0,2445,290,,,,,,,,,,,,,,,
2826434,1501038928974,,,,,,,,,0,2415,290,,,,,,,,,,,,,,,
2826444,1501038928984,3.2,,-0.52,0.01,1.41,0,19,-3,0,2400,290,36.113659,-115.145973,21.92,6.019,2044.6,9,3,1.9,0,0.0,-1,0.0,0.0,0.0,0
2826454,1501038928994,,,,,,,,,0,2385,290,,,,,,,,,,,,,,,
2826464,1501038928998,,,,,,,,,0,2400,280,,,,,,,,,,,,,,,
2826474,1501038929008,,,,,,,,,0,2370,280,,,,,,,,,,,,,,,
2826484,1501038929018,3.25,,-0.53,0.01,1.27,-1,16,-3,0,2370,280,,,,,,,,,,,,,,,
2826494,1501038929028,,,,,,,,,0,2340,280,,,,,,,,,,,,,,,
2826504,1501038929038,,,,,,,,,0,2325,280,,,,,,,,,,,,,,,
2826514,1501038929048,,,,,,,,,0,2325,280,,,,,,,,,,,,,,,
2826524,1501038929058,3.22,,-0.59,0.01,1.31,-1,13,-3,0,2325,280,,,,,,,,,,,,,,,
2826534,1501038929068,,,,,,,,,0,2310,270,,,,,,,,,,,,,,,
2826544,1501038929078,,,,,,,,,0,2295,270,36.113659,-115.145988,21.4,6.02,2044.5,9,3,1.9,0,0.0,-1,0.0,0.0,0.0,0
2826554,1501038929094,,,,,,,,,0,2280,270,,,,,,,,,,,,,,,
2826564,1501038929104,3.3,,-0.55,0.01,1.29,-1,11,1,0,2295,270,,,,,,,,,,,,,,,
2826574,1501038929114,,,,,,,,,0,2265,270,,,,,,,,,,,,,,,
2826584,1501038929124,,,,,,,,,0,2265,270,,,,,,,,,,,,,,,
2826594,1501038929134,,,,,,,,,0,2250,270,,,,,,,,,,,,,,,
2826604,1501038929144,3.28,,-0.59,0.04,1.21,-1,7,1,0,2250,270,,,,,,,,,,,,,,,
2826614,1501038929154,,,,,,,,,0,2250,270,,,,,,,,,,,,,,,
2826624,1501038929164,,,,,,,,,0,2250,270,,,,,,,,,,,,,,,
2826634,1501038929174,,,,,,,,,0,2205,270,,,,,,,,,,,,,,,
2826644,1501038929184,3.27,,-0.57,0.02,1.16,-1,5,3,0,2205,260,36.113659,-115.145996,20.45,6.021,2044.5,9,3,1.9,0,0.0,-1,0.0,0.0,0.0,0
2826654,1501038929194,,,,,,,,,0,2190,260,,,,,,,,,,,,,,,
2826664,1501038929204,,,,,,,,,0,2175,260,,,,,,,,,,,,,,,
2826674,1501038929214,,,,,,,,,0,2175,260,,,,,,,,,,,,,,,
2826684,1501038929224,3.27,,-0.62,0.04,1.17,-1,4,3,0,2160,250,,,,,,,,,,,,,,,
2826694,1501038929234,,,,,,,,,0,2130,250,,,,,,,,,,,,,,,
2826704,1501038929244,,,,,,,,,0,2115,250,,,,,,,,,,,,,,,
2826714,1501038929254,,,,,,,,,0,2100,250,,,,,,,,,,,,,,,
2826724,1501038929264,3.29,,-0.57,0.02,1.16,-1,1,4,0,2100,250,,,,,,,,,,,,,,,
2826734,1501038929274,,,,,,,,,0,2085,250,,,,,,,,,,,,,,,
2826744,1501038929284,,,,,,,,,0,2085,250,36.113659,-115.146011,19.78,6.021,2044.3,9,3,1.9,0,0.0,-1,0.0,0.0,0.0,0
2826754,1501038929294,,,,,,,,,0,2055,250,,,,,,,,,,,,,,,
2826764,1501038929304,3.27,,-0.57,-0.02,1.15,-1,2,4,0,2040,240,,,,,,,,,,,,,,,
2826774,1501038929314,,,,,,,,,0,2040,240,,,,,,,,,,,,,,,
2826784,1501038929324,,,,,,,,,0,2040,240,,,,,,,,,,,,,,,
2826794,1501038929334,,,,,,,,,0,2040,240,,,,,,,,,,,,,,,
2826804,1501038929344,3.21,,-0.59,-0.01,1.09,-1,-2,4,0,2010,240,,,,,,,,,,,,,,,
2826814,1501038929354,,,,,,,,,0,2010,240,,,,,,,,,,,,,,,
2826824,1501038929364,,,,,,,,,0,1980,240,,,,,,,,,,,,,,,
2826834,1501038929374,,,,,,,,,0,1950,240,,,,,,,,,,,,,,,
2826844,1501038929384,3.28,,-0.55,-0.01,1.06,-0,-2,3,0,1965,230,36.113659,-115.146011,18.57,6.022,2044.4,9,3,1.9,0,0.0,-1,0.0,0.0,0.0,0
2826854,1501038929394,,,,,,,,,0,1950,230,,,,,,,,,,,,,,,
2826864,1501038929404,,,,,,,,,0,1935,230,,,,,,,,,,,,,,,
2826874,1501038929414,,,,,,,,,0,1920,230,,,,,,,,,,,,,,,
2826884,1501038929424,3.23,,-0.55,-0.02,1.08,-0,-2,5,0,1890,220,,,,,,,,,,,,,,,
2826894,1501038929434,,,,,,,,,0,1875,220,,,,,,,,,,,,,,,
2826904,1501038929444,,,,,,,,,0,1860,220,,,,,,,,,,,,,,,
2826914,1501038929454,,,,,,,,,0,1875,220,,,,,,,,,,,,,,,
2826924,1501038929464,3.22,,-0.57,-0.02,1.08,-1,-4,5,0,1845,220,,,,,,,,,,,,,,,
2826934,1501038929474,,,,,,,,,0,1830,210,,,,,,,,,,,,,,,
2826944,1501038929484,,,,,,,,,0,1830,210,36.113659,-115.146027,17.63,6.022,2044.3,9,3,1.9,0,0.0,-1,0.0,0.0,0.0,0
2826954,1501038929493,,,,,,,,,0,1800,210,,,,,,,,,,,,,,,
2826964,1501038929503,3.25,,-0.58,-0.02,1.11,-1,-3,5,0,1785,210,,,,,,,,,,,,,,,
2826974,1501038929513,,,,,,,,,0,1800,210,,,,,,,,,,,,,,,
2826984,1501038929523,,,,,,,,,0,1800,210,,,,,,,,,,,,,,,
2826994,1501038929533,,,,,,,,,0,1785,210,,,,,,,,,,,,,,,
2827004,1501038929543,3.27,,-0.55,-0.05,1.09,-0,-5,5,0,1770,210,,,,,,,,,,,,,,,
2827014,1501038929553,,,,,,,,,0,1725,210,,,,,,,,,,,,,,,
2827024,1501038929563,,,,,,,,,0,1725,210,,,,,,,,,,,,,,,
2827034,1501038929573,,,,,,,,,0,1710,200,,,,,,,,,,,,,,,
2827044,1501038929583,3.24,4.5,-0.55,-0.02,1.05,0,-6,4,0,1725,200,36.113659,-115.146034,16.59,6.023,2044.2,9,3,1.9,0,0.0,-1,0.0,0.0,0.0,0
2827054,1501038929593,,,,,,,,,0,1740,200,,,,,,,,,,,,,,,
2827064,1501038929603,,,,,,,,,0,1710,200,,,,,,,,,,,,,,,
2827074,1501038929613,,,,,,,,,0,1680,200,,,,,,,,,,,,,,,
2827084,1501038929623,3.2,,-0.57,-0.02,1.05,0,-5,4,0,1650,190,,,,,,,,,,,,,,,
2827094,1501038929633,,,,,,,,,0,1635,190,,,,,,,,,,,,,,,
2827104,1501038929643,,,,,,,,,0,1635,190,,,,,,,,,,,,,,,
2827114,1501038929653,,,,,,,,,0,1635,190,,,,,,,,,,,,,,,
2827124,1501038929663,3.21,,-0.58,-0.07,1.0,0,-5,3,0,1635,190,,,,,,,,,,,,,,,
2827134,1501038929673,,,,,,,,,0,1620,180,,,,,,,,,,,,,,,
2827144,1501038929683,,,,,,,,,0,1590,180,36.113659,-115.146034,16.24,6.023,2044.6,9,3,2.0,0,0.0,-1,0.0,0.0,0.0,0
2827154,1501038929693,,,,,,,,,0,1575,180,,,,,,,,,,,,,,,
2827164,1501038929703,3.28,,-0.58,-0.04,0.94,0,-5,2,0,1560,180,,,,,,,,,,,,,,,
2827174,1501038929713,,,,,,,,,0,1545,180,,,,,,,,,,,,,,,
2827184,1501038929723,,,,,,,,,0,1530,180,,,,,,,,,,,,,,,
2827194,1501038929733,,,,,,,,,0,1545,170,,,,,,,,,,,,,,,
2827204,1501038929743,3.28,,-0.57,0.02,0.9,-0,-6,3,0,1530,170,,,,,,,,,,,,,,,
2827214,1501038929753,,,,,,,,,0,1515,170,,,,,,,,,,,,,,,
2827224,1501038929763,,,,,,,,,0,1500,170,,,,,,,,,,,,,,,
2827234,1501038929773,,,,,,,,,0,1485,170,,,,,,,,,,,,,,,
2827244,1501038929783,3.22,,-0.58,-0.01,0.9,0,-6,3,0,1470,170,36.113659,-115.14605,14.85,6.023,2044.3,9,3,1.9,0,0.0,-1,0.0,0.0,0.0,0
2827254,1501038929791,,,,,,,,,0,1455,160,,,,,,,,,,,,,,,
2827264,1501038929801,,,,,,,,,0,1440,160,,,,,,,,,,,,,,,
2827274,1501038929811,,,,,,,,,0,1470,160,,,,,,,,,,,,,,,
2827284,1501038929821,3.25,,-0.55,-0.08,0.96,0,-8,2,0,1470,160,,,,,,,,,,,,,,,
2827294,1501038929831,,,,,,,,,0,1455,160,,,,,,,,,,,,,,,
2827304,1501038929841,,,,,,,,,0,1425,160,,,,,,,,,,,,,,,
2827314,1501038929851,,,,,,,,,0,1410,150,,,,,,,,,,,,,,,
2827324,1501038929861,3.25,,-0.54,-0.07,0.96,0,-9,3,0,1395,150,,,,,,,,,,,,,,,
2827334,1501038929871,,,,,,,,,0,1380,150,,,,,,,,,,,,,,,
2827344,1501038929881,,,,,,,,,0,1365,150,36.113659,-115.14605,13.22,6.024,2044.4,9,3,1.9,0,0.0,-1,0.0,0.0,0.0,0
2827354,1501038929893,,,,,,,,,0,1395,150,,,,,,,,,,,,,,,
2827364,1501038929903,3.23,,-0.54,-0.11,0.99,0,-9,3,0,1395,150,,,,,,,,,,,,,,,
2827374,1501038929913,,,,,,,,,0,1410,150,,,,,,,,,,,,,,,
2827384,1501038929923,,,,,,,,,0,1395,140,,,,,,,,,,,,,,,
2827394,1501038929933,,,,,,,,,0,1365,140,,,,,,,,,,,,,,,
2827404,1501038929943,3.26,,-0.55,-0.13,1.01,0,-7,3,0,1350,140,,,,,,,,,,,,,,,
2827414,1501038929953,,,,,,,,,0,1320,140,,,,,,,,,,,,,,,
2827424,1501038929963,,,,,,,,,0,1305,140,,,,,,,,,,,,,,,
2827434,1501038929973,,,,,,,,,0,1290,140,,,,,,,,,,,,,,,
2827444,1501038929983,3.2,,-0.56,-0.11,1.0,1,-6,3,0,1335,140,36.113659,-115.146065,11.76,6.024,2044.5,9,3,1.9,0,0.0,-1,0.0,0.0,0.0,0
2827454,1501038929993,,,,,,,,,0,1350,140,,,,,,,,,,,,,,,
2827464,1501038929997,,,,,,,,,0,1350,130,,,,,,,,,,,,,,,
2827474,1501038930007,,,,,,,,,0,1335,130,,,,,,,,,,,,,,,
2827484,1501038930017,3.25,,-0.54,-0.1,1.0,0,-6,4,0,1305,130,,,,,,,,,,,,,,,
2827494,1501038930027,,,,,,,,,0,1290,130,,,,,,,,,,,,,,,
2827504,1501038930037,,,,,,,,,0,1260,130,,,,,,,,,,,,,,,
2827514,1501038930047,,,,,,,,,0,1245,130,,,,,,,,,,,,,,,
2827524,1501038930057,3.23,,-0.57,-0.12,0.99,1,-5,4,0,1245,130,,,,,,,,,,,,,,,
2827534,1501038930067,,,,,,,,,0,1215,130,,,,,,,,,,,,,,,
2827544,1501038930077,,,,,,,,,0,1305,110,36.113659,-115.146065,10.31,6.025,2044.5,9,3,1.1,0,0.0,-1,0.0,0.0,0.0,0
2827554,1501038930091,,,,,,,,,0,1335,110,,,,,,,,,,,,,,,
2827564,1501038930101,3.24,,-0.56,-0.08,1.05,1,-6,3,0,1305,110,,,,,,,,,,,,,,,
2827574,1501038930111,,,,,,,,,0,1275,110,,,,,,,,,,,,,,,
2827584,1501038930121,,,,,,,,,0,1245,110,,,,,,,,,,,,,,,
2827594,1501038930131,,,,,,,,,0,1245,110,,,,,,,,,,,,,,,
2827604,1501038930141,3.24,,-0.57,-0.04,1.02,1,-4,4,0,1215,110,,,,,,,,,,,,,,,
2827614,1501038930151,,,,,,,,,0,1200,110,,,,,,,,,,,,,,,
2827624,1501038930161,,,,,,,,,0,1140,110,,,,,,,,,,,,,,,
2827634,1501038930171,,,,,,,,,0,1305,10000000,,,,,,,,,,,,,,,
2827644,1501038930181,3.25,,-0.55,-0.03,0.99,0,-6,3,0,1365,890,36.113659,-115.146072,9.06,6.025,2044.5,9,3,1.1,0,0.0,-1,0.0,0.0,0.0,0
2827654,1501038930193,,,,,,,,,0,1335,890,,,,,,,,,,,,,,,
2827664,1501038930203,,,,,,,,,0,1335,890,,,,,,,,,,,,,,,
2827674,1501038930213,,,,,,,,,0,1290,890,,,,,,,,,,,,,,,
2827684,1501038930223,3.26,,-0.55,-0.0,0.93,1,-7,2,0,1275,890,,,,,,,,,,,,,,,
2827694,1501038930233,,,,,,,,,0,1245,890,,,,,,,,,,,,,,,
2827704,1501038930243,,,,,,,,,0,1215,890,,,,,,,,,,,,,,,
2827714,1501038930253,,,,,,,,,0,1110,890,,,,,,,,,,,,,,,
2827724,1501038930263,3.25,,-0.57,0.0,0.81,1,-7,2,0,1110,890,,,,,,,,,,,,,,,
2827734,1501038930273,,,,,,,,,0,1365,890,,,,,,,,,,,,,,,
2827744,1501038930283,,,,,,,,,0,1485,890,36.113659,-115.146072,7.9,6.025,2044.5,9,3,1.1,0,0.0,-1,0.0,0.0,0.0,0
2827754,1501038930293,,,,,,,,,0,1455,460,,,,,,,,,,,,,,,
2827764,1501038930303,3.24,,-0.54,-0.04,0.8,-0,-8,3,0,1425,460,,,,,,,,,,,,,,,
2827774,1501038930313,,,,,,,,,0,1410,460,,,,,,,,,,,,,,,
2827784,1501038930323,,,,,,,,,0,1380,460,,,,,,,,,,,,,,,
2827794,1501038930333,,,,,,,,,0,1335,460,,,,,,,,,,,,,,,
2827804,1501038930343,3.24,,-0.49,-0.05,0.84,-0,-9,1,0,1245,460,,,,,,,,,,,,,,,
2827814,1501038930353,,,,,,,,,0,1470,460,,,,,,,,,,,,,,,
2827824,1501038930363,,,,,,,,,0,1560,460,,,,,,,,,,,,,,,
2827834,1501038930373,,,,,,,,,0,1515,460,,,,,,,,,,,,,,,
2827844,1501038930383,3.23,,-0.41,-0.01,0.87,-1,-10,3,0,1470,460,36.113659,-115.146072,6.51,6.025,2044.9,9,3,1.1,0,0.0,-1,0.0,0.0,0.0,0
2827854,1501038930393,,,,,,,,,0,1410,460,,,,,,,,,,,,,,,
2827864,1501038930403,,,,,,,,,0,1365,330,,,,,,,,,,,,,,,
2827874,1501038930413,,,,,,,,,0,1365,330,,,,,,,,,,,,,,,
2827884,1501038930423,3.26,,-0.42,-0.02,0.9,-1,-11,4,0,1305,330,,,,,,,,,,,,,,,
2827894,1501038930433,,,,,,,,,0,1185,330,,,,,,,,,,,,,,,
2827904,1501038930443,,,,,,,,,0,1395,330,,,,,,,,,,,,,,,
2827914,1501038930453,,,,,,,,,0,1500,330,,,,,,,,,,,,,,,
2827924,1501038930463,3.23,,-0.4,-0.0,0.96,-0,-10,4,0,1470,330,,,,,,,,,,,,,,,
2827934,1501038930473,,,,,,,,,0,1425,330,,,,,,,,,,,,,,,
2827944,1501038930483,,,,,,,,,0,1395,330,36.113655,-115.146072,5.65,6.025,2045.0,9,3,1.1,0,0.0,-1,0.0,0.0,0.0,0
2827954,1501038930492,,,,,,,,,0,1350,330,,,,,,,,,,,,,,,
2827964,1501038930502,3.25,,-0.37,-0.0,0.94,-0,-8,4,0,1305,330,,,,,,,,,,,,,,,
2827974,1501038930512,,,,,,,,,0,1200,0,,,,,,,,,,,,,,,
2827984,1501038930522,,,,,,,,,0,1365,0,,,,,,,,,,,,,,,
2827994,1501038930532,,,,,,,,,0,1470,0,,,,,,,,,,,,,,,
2828004,1501038930542,3.23,,-0.33,0.0,0.92,-1,-8,5,0,1455,170,,,,,,,,,,,,,,,
2828014,1501038930552,,,,,,,,,0,1455,170,,,,,,,,,,,,,,,
2828024,1501038930562,,,,,,,,,0,1395,170,,,,,,,,,,,,,,,
2828034,1501038930572,,,,,,,,,0,1365,170,,,,,,,,,,,,,,,
2828044,1501038930582,3.26,4.51,-0.29,-0.02,0.95,-1,-9,5,0,1335,170,36.113655,-115.146088,5.01,6.026,2044.9,9,3,1.1,0,0.0,-1,0.0,0.0,0.0,0
2828054,1501038930592,,,,,,,,,0,1275,170,,,,,,,,,,,,,,,
2828064,1501038930602,,,,,,,,,0,1170,170,,,,,,,,,,,,,,,
2828074,1501038930612,,,,,,,,,0,1380,170,,,,,,,,,,,,,,,
2828084,1501038930622,3.27,,-0.29,-0.01,0.98,-1,-9,4,0,1485,170,,,,,,,,,,,,,,,
2828094,1501038930632,,,,,,,,,0,1455,170,,,,,,,,,,,,,,,
2828104,1501038930642,,,,,,,,,0,1410,170,,,,,,,,,,,,,,,
2828114,1501038930652,,,,,,,,,0,1365,170,,,,,,,,,,,,,,,
2828124,1501038930662,3.27,,-0.27,0.01,0.94,-1,-9,3,0,1365,170,,,,,,,,,,,,,,,
2828134,1501038930672,,,,,,,,,0,1335,170,,,,,,,,,,,,,,,
2828144,1501038930682,,,,,,,,,0,1275,170,36.113655,-115.146088,4.51,6.026,2044.8,9,3,1.1,0,0.0,-1,0.0,0.0,0.0,0
2828154,1501038930692,,,,,,,,,0,1170,10000000,,,,,,,,,,,,,,,
2828164,1501038930702,3.22,,-0.28,-0.04,0.92,-1,-7,4,0,1380,0,,,,,,,,,,,,,,,
2828174,1501038930712,,,,,,,,,0,1470,0,,,,,,,,,,,,,,,
2828184,1501038930722,,,,,,,,,0,1455,110,,,,,,,,,,,,,,,
2828194,1501038930732,,,,,,,,,0,1410,110,,,,,,,,,,,,,,,
2828204,1501038930742,3.25,,-0.21,-0.04,0.97,-0,-8,5,0,1365,110,,,,,,,,,,,,,,,
2828214,1501038930752,,,,,,,,,0,1365,110,,,,,,,,,,,,,,,
2828224,1501038930762,,,,,,,,,0,1320,110,,,,,,,,,,,,,,,
2828234,1501038930772,,,,,,,,,0,1275,110,,,,,,,,,,,,,,,
2828244,1501038930782,3.25,,-0.22,-0.02,0.96,-0,-7,4,0,1140,110,36.113655,-115.146088,3.77,6.026,2044.5,9,3,1.1,0,0.0,-1,0.0,0.0,0.0,0
2828254,1501038930792,,,,,,,,,0,1365,110,,,,,,,,,,,,,,,
2828264,1501038930794,,,,,,,,,0,1455,110,,,,,,,,,,,,,,,
2828274,1501038930804,,,,,,,,,0,1440,110,,,,,,,,,,,,,,,
2828284,1501038930814,3.25,,-0.21,-0.01,0.93,-0,-7,4,0,1380,110,,,,,,,,,,,,,,,
2828294,1501038930824,,,,,,,,,0,1335,110,,,,,,,,,,,,,,,
2828304,1501038930834,,,,,,,,,0,1305,110,,,,,,,,,,,,,,,
2828314,1501038930844,,,,,,,,,0,1305,110,,,,,,,,,,,,,,,
2828324,1501038930854,3.28,,-0.22,-0.04,0.92,-0,-7,5,0,1260,10000000,,,,,,,,,,,,,,,
2828334,1501038930864,,,,,,,,,0,1140,0,,,,,,,,,,,,,,,
2828344,1501038930874,,,,,,,,,0,1350,0,36.113655,-115.146088,3.55,6.026,2044.5,9,3,1.1,0,0.0,-1,0.0,0.0,0.0,0
2828354,1501038930894,,,,,,,,,0,1455,0,,,,,,,,,,,,,,,
2828364,1501038930904,3.22,,-0.18,-0.04,1.0,-1,-6,5,0,1425,0,,,,,,,,,,,,,,,
2828374,1501038930914,,,,,,,,,0,1380,0,,,,,,,,,,,,,,,
2828384,1501038930924,,,,,,,,,0,1350,0,,,,,,,,,,,,,,,
2828394,1501038930934,,,,,,,,,0,1320,230,,,,,,,,,,,,,,,
2828404,1501038930944,3.26,,-0.2,-0.04,1.02,-1,-5,5,0,1320,230,,,,,,,,,,,,,,,
2828414,1501038930954,,,,,,,,,0,1275,230,,,,,,,,,,,,,,,
2828424,1501038930964,,,,,,,,,0,1155,230,,,,,,,,,,,,,,,
2828434,1501038930974,,,,,,,,,0,1350,230,,,,,,,,,,,,,,,
2828444,1501038930984,3.26,,-0.19,0.01,0.98,-1,-4,4,0,1440,230,36.113655,-115.146088,3.22,6.026,2044.5,9,3,1.1,0,0.0,-1,0.0,0.0,0.0,0
2828454,1501038930994,,,,,,,,,0,1425,230,,,,,,,,,,,,,,,
2828464,1501038930996,,,,,,,,,0,1380,230,,,,,,,,,,,,,,,
2828474,1501038931006,,,,,,,,,0,1365,230,,,,,,,,,,,,,,,
2828484,1501038931016,3.22,,-0.23,-0.02,0.93,-1,-3,4,0,1335,230,,,,,,,,,,,,,,,
2828494,1501038931026,,,,,,,,,0,1335,10000000,,,,,,,,,,,,,,,
2828504,1501038931036,,,,,,,,,0,1305,0,,,,,,,,,,,,,,,
2828514,1501038931046,,,,,,,,,0,1200,0,,,,,,,,,,,,,,,
2828524,1501038931056,3.24,,-0.28,-0.04,0.97,-1,-2,4,0,1305,0,,,,,,,,,,,,,,,
2828534,1501038931066,,,,,,,,,0,1365,0,,,,,,,,,,,,,,,
2828544,1501038931076,,,,,,,,,0,1350,0,36.113655,-115.146088,2.93,6.026,2044.5,9,3,2.0,0,0.0,-1,0.0,0.0,0.0,0
2828554,1501038931094,,,,,,,,,0,1320,0,,,,,,,,,,,,,,,
2828564,1501038931104,3.2,,-0.23,-0.04,1.03,-0,-3,4,0,1290,0,,,,,,,,,,,,,,,
2828574,1501038931114,,,,,,,,,0,1290,0,,,,,,,,,,,,,,,
2828584,1501038931124,,,,,,,,,0,1260,0,,,,,,,,,,,,,,,
2828594,1501038931134,,,,,,,,,0,1230,0,,,,,,,,,,,,,,,
2828604,1501038931144,3.23,,-0.3,-0.02,0.99,-0,-5,3,0,1110,0,,,,,,,,,,,,,,,
2828614,1501038931154,,,,,,,,,0,1260,0,,,,,,,,,,,,,,,
2828624,1501038931164,,,,,,,,,0,1365,0,,,,,,,,,,,,,,,
2828634,1501038931174,,,,,,,,,0,1350,0,,,,,,,,,,,,,,,
2828644,1501038931184,3.22,,-0.31,0.0,0.95,-0,-3,3,0,1350,0,36.113655,-115.146088,2.29,6.026,2044.4,9,3,2.0,0,0.0,-1,0.0,0.0,0.0,0
2828654,1501038931194,,,,,,,,,0,1320,0,,,,,,,,,,,,,,,
2828664,1501038931204,,,,,,,,,0,1305,0,,,,,,,,,,,,,,,
2828674,1501038931214,,,,,,,,,0,1290,0,,,,,,,,,,,,,,,
2828684,1501038931224,3.24,,-0.34,-0.01,0.89,-0,-3,2,0,1260,0,,,,,,,,,,,,,,,
2828694,1501038931234,,,,,,,,,0,1155,0,,,,,,,,,,,,,,,
2828704,1501038931244,,,,,,,,,0,1380,0,,,,,,,,,,,,,,,
2828714,1501038931254,,,,,,,,,0,1500,0,,,,,,,,,,,,,,,
2828724,1501038931264,3.25,,-0.33,-0.05,0.91,-0,-4,4,0,1500,0,,,,,,,,,,,,,,,
2828734,1501038931274,,,,,,,,,0,1470,0,,,,,,,,,,,,,,,
2828744,1501038931284,,,,,,,,,0,1455,0,36.113655,-115.146088,1.85,6.026,2044.5,9,3,2.0,0,0.0,-1,0.0,0.0,0.0,0
2828754,1501038931294,,,,,,,,,0,1440,0,,,,,,,,,,,,,,,
2828764,1501038931304,3.24,,-0.3,-0.05,0.98,-0,-4,5,0,1440,0,,,,,,,,,,,,,,,
2828774,1501038931314,,,,,,,,,0,1410,0,,,,,,,,,,,,,,,
2828784,1501038931324,,,,,,,,,0,1590,0,,,,,,,,,,,,,,,
2828794,1501038931334,,,,,,,,,0,1695,0,,,,,,,,,,,,,,,
2828804,1501038931344,3.27,,-0.27,-0.04,0.95,-0,-6,3,0,1680,0,,,,,,,,,,,,,,,
2828814,1501038931354,,,,,,,,,0,1665,0,,,,,,,,,,,,,,,
2828824,1501038931364,,,,,,,,,0,1650,0,,,,,,,,,,,,,,,
2828834,1501038931374,,,,,,,,,0,1620,0,,,,,,,,,,,,,,,
2828844,1501038931384,3.27,,-0.21,-0.05,0.99,-1,-7,4,0,1590,0,36.113655,-115.146103,0.99,6.026,2044.5,9,3,2.0,0,0.0,-1,0.0,0.0,0.0,0
2828854,1501038931394,,,,,,,,,0,1530,0,,,,,,,,,,,,,,,
2828864,1501038931404,,,,,,,,,0,1680,0,,,,,,,,,,,,,,,
2828874,1501038931414,,,,,,,,,0,1740,0,,,,,,,,,,,,,,,
2828884,1501038931424,3.28,,-0.15,-0.1,1.04,-1,-10,5,0,1710,0,,,,,,,,,,,,,,,
2828894,1501038931434,,,,,,,,,0,1680,0,,,,,,,,,,,,,,,
2828904,1501038931444,,,,,,,,,0,1650,0,,,,,,,,,,,,,,,
2828914,1501038931454,,,,,,,,,0,1620,0,,,,,,,,,,,,,,,
2828924,1501038931464,3.25,,-0.1,-0.07,1.06,-2,-11,4,0,1575,0,,,,,,,,,,,,,,,
2828934,1501038931474,,,,,,,,,0,1665,0,,,,,,,,,,,,,,,
2828944,1501038931484,,,,,,,,,0,1710,0,36.113655,-115.146103,0.0,6.026,2044.5,9,3,2.0,0,0.0,-1,0.0,0.0,0.0,0
2828954,1501038931495,,,,,,,,,0,1695,0,,,,,,,,,,,,,,,
2828964,1501038931505,3.26,,-0.08,-0.03,1.0,-2,-11,5,0,1650,0,,,,,,,,,,,,,,,
2828974,1501038931515,,,,,,,,,0,1590,0,,,,,,,,,,,,,,,
2828984,1501038931525,,,,,,,,,0,1560,0,,,,,,,,,,,,,,,
2828994,1501038931535,,,,,,,,,0,1515,0,,,,,,,,,,,,,,,
2829004,1501038931545,3.28,,-0.06,-0.03,0.97,-2,-12,4,0,1605,0,,,,,,,,,,,,,,,
2829014,1501038931555,,,,,,,,,0,1650,0,,,,,,,,,,,,,,,
2829024,1501038931565,,,,,,,,,0,1635,0,,,,,,,,,,,,,,,
2829034,1501038931575,,,,,,,,,0,1590,0,,,,,,,,,,,,,,,
2829044,1501038931585,3.26,4.51,-0.03,-0.02,1.0,-1,-11,5,0,1560,0,36.113655,-115.146103,0.0,6.026,2044.6,9,3,2.0,0,0.0,-1,0.0,0.0,0.0,0
2829054,1501038931595,,,,,,,,,0,1530,0,,,,,,,,,,,,,,,
2829064,1501038931605,,,,,,,,,0,1500,0,,,,,,,,,,,,,,,
2829074,1501038931615,,,,,,,,,0,1425,0,,,,,,,,,,,,,,,
2829084,1501038931625,3.25,,-0.01,-0.02,1.0,-2,-9,6,0,1560,0,,,,,,,,,,,,,,,
2829094,1501038931635,,,,,,,,,0,1605,0,,,,,,,,,,,,,,,
2829104,1501038931645,,,,,,,,,0,1590,0,,,,,,,,,,,,,,,
2829114,1501038931655,,,,,,,,,0,1545,0,,,,,,,,,,,,,,,
2829124,1501038931665,3.25,,0.01,-0.04,1.01,-2,-7,6,0,1530,0,,,,,,,,,,,,,,,
2829134,1501038931675,,,,,,,,,0,1485,0,,,,,,,,,,,,,,,
2829144,1501038931685,,,,,,,,,0,1455,0,36.113655,-115.146103,0.0,6.026,2044.7,9,3,2.0,0,0.0,-1,0.0,0.0,0.0,0
2829154,1501038931695,,,,,,,,,0,1380,0,,,,,,,,,,,,,,,
2829164,1501038931705,3.26,,0.01,-0.05,1.03,-2,-6,7,0,1545,0,,,,,,,,,,,,,,,
2829174,1501038931715,,,,,,,,,0,1605,0,,,,,,,,,,,,,,,
2829184,1501038931725,,,,,,,,,0,1575,0,,,,,,,,,,,,,,,
2829194,1501038931735,,,,,,,,,0,1545,0,,,,,,,,,,,,,,,
2829204,1501038931745,3.25,,0.01,-0.04,1.03,-2,-5,6,0,1515,0,,,,,,,,,,,,,,,
2829214,1501038931755,,,,,,,,,0,1485,0,,,,,,,,,,,,,,,
2829224,1501038931765,,,,,,,,,0,1455,0,,,,,,,,,,,,,,,
2829234,1501038931775,,,,,,,,,0,1365,0,,,,,,,,,,,,,,,
2829244,1501038931785,3.25,,0.02,-0.06,1.06,-2,-4,6,0,1530,0,36.113655,-115.146103,0.0,6.026,2044.8,9,3,2.0,0,0.0,-1,0.0,0.0,0.0,0
2829254,1501038931795,,,,,,,,,0,1605,0,,,,,,,,,,,,,,,
2829264,1501038931805,,,,,,,,,0,1590,0,,,,,,,,,,,,,,,
2829274,1501038931815,,,,,,,,,0,1560,0,,,,,,,,,,,,,,,
2829284,1501038931825,3.25,,0.01,-0.05,1.05,-2,-4,5,0,1515,0,,,,,,,,,,,,,,,
2829294,1501038931835,,,,,,,,,0,1485,0,,,,,,,,,,,,,,,
2829304,1501038931845,,,,,,,,,0,1455,0,,,,,,,,,,,,,,,
2829314,1501038931855,,,,,,,,,0,1380,0,,,,,,,,,,,,,,,
2829324,1501038931865,3.25,,0.02,-0.07,1.07,-2,-3,4,0,1560,0,,,,,,,,,,,,,,,
2829334,1501038931875,,,,,,,,,0,1620,0,,,,,,,,,,,,,,,
2829344,1501038931885,,,,,,,,,0,1575,0,36.113655,-115.146103,0.0,6.026,2044.8,9,3,2.0,0,0.0,-1,0.0,0.0,0.0,0
2829354,1501038931895,,,,,,,,,0,1545,0,,,,,,,,,,,,,,,
2829364,1501038931905,3.22,,0.01,-0.05,1.07,-1,-4,3,0,1515,0,,,,,,,,,,,,,,,
2829374,1501038931915,,,,,,,,,0,1515,0,,,,,,,,,,,,,,,
2829384,1501038931925,,,,,,,,,0,1485,0,,,,,,,,,,,,,,,
2829394,1501038931935,,,,,,,,,0,1575,0,,,,,,,,,,,,,,,
2829404,1501038931945,3.27,,0.03,-0.03,1.12,-1,-4,2,0,1650,0,,,,,,,,,,,,,,,
2829414,1501038931955,,,,,,,,,0,1620,0,,,,,,,,,,,,,,,
2829424,1501038931965,,,,,,,,,0,1590,0,,,,,,,,,,,,,,,
2829434,1501038931975,,,,,,,,,0,1560,0,,,,,,,,,,,,,,,
2829444,1501038931985,3.28,,0.0,0.0,1.04,-1,-3,2,0,1530,0,36.113655,-115.146103,0.0,6.026,2044.8,9,3,2.0,0,0.0,-1,0.0,0.0,0.0,0
2829454,1501038931995,,,,,,,,,0,1500,0,,,,,,,,,,,,,,,
2829464,1501038931999,,,,,,,,,0,1410,0,,,,,,,,,,,,,,,
2829474,1501038932009,,,,,,,,,0,1590,0,,,,,,,,,,,,,,,
2829484,1501038932019,3.3,,0.0,0.04,1.05,-2,-4,1,0,1665,0,,,,,,,,,,,,,,,
2829494,1501038932029,,,,,,,,,0,1635,0,,,,,,,,,,,,,,,
2829504,1501038932039,,,,,,,,,0,1605,0,,,,,,,,,,,,,,,
2829514,1501038932049,,,,,,,,,0,1590,0,,,,,,,,,,,,,,,
2829524,1501038932059,3.31,,-0.01,0.04,1.0,-2,-5,2,0,1545,0,,,,,,,,,,,,,,,
2829534,1501038932069,,,,,,,,,0,1515,0,,,,,,,,,,,,,,,
2829544,1501038932079,,,,,,,,,0,1440,0,36.113655,-115.146103,0.0,6.026,2044.8,9,3,1.9,0,0.0,-1,0.0,0.0,0.0,0
2829554,1501038932093,,,,,,,,,0,1605,0,,,,,,,,,,,,,,,
2829564,1501038932103,3.31,,0.0,0.01,1.0,-1,-6,2,0,1665,0,,,,,,,,,,,,,,,
2829574,1501038932113,,,,,,,,,0,1605,0,,,,,,,,,,,,,,,
2829584,1501038932123,,,,,,,,,0,1575,0,,,,,,,,,,,,,,,
2829594,1501038932133,,,,,,,,,0,1545,0,,,,,,,,,,,,,,,
2829604,1501038932143,3.28,,0.01,-0.02,1.0,-1,-5,3,0,1515,0,,,,,,,,,,,,,,,
2829614,1501038932153,,,,,,,,,0,1440,0,,,,,,,,,,,,,,,
2829624,1501038932163,,,,,,,,,0,1590,0,,,,,,,,,,,,,,,
2829634,1501038932173,,,,,,,,,0,1635,0,,,,,,,,,,,,,,,
2829644,1501038932183,3.32,,-0.0,-0.01,0.98,-1,-6,3,0,1620,0,36.113655,-115.146103,0.0,6.026,2044.8,9,3,1.9,0,0.0,-1,0.0,0.0,0.0,0
2829654,1501038932195,,,,,,,,,0,1575,0,,,,,,,,,,,,,,,
2829664,1501038932205,,,,,,,,,0,1545,0,,,,,,,,,,,,,,,
2829674,1501038932215,,,,,,,,,0,1515,0,,,,,,,,,,,,,,,
2829684,1501038932225,3.33,,0.0,-0.01,1.03,-1,-5,3,0,1485,0,,,,,,,,,,,,,,,
2829694,1501038932235,,,,,,,,,0,1410,0,,,,,,,,,,,,,,,
2829704,1501038932245,,,,,,,,,0,1560,0,,,,,,,,,,,,,,,
2829714,1501038932255,,,,,,,,,0,1620,0,,,,,,,,,,,,,,,
2829724,1501038932265,3.51,,-0.0,-0.02,1.03,-1,-4,5,0,1590,0,,,,,,,,,,,,,,,
2829734,1501038932275,,,,,,,,,0,1560,0,,,,,,,,,,,,,,,
2829744,1501038932285,,,,,,,,,0,1515,0,36.113655,-115.146103,0.0,6.026,2044.7,9,3,1.9,0,0.0,-1,0.0,0.0,0.0,0
2829754,1501038932295,,,,,,,,,0,1500,0,,,,,,,,,,,,,,,
2829764,1501038932305,3.67,,0.01,0.0,1.06,-2,-4,5,0,1455,0,,,,,,,,,,,,,,,
2829774,1501038932315,,,,,,,,,0,1380,0,,,,,,,,,,,,,,,
2829784,1501038932325,,,,,,,,,0,1545,0,,,,,,,,,,,,,,,
2829794,1501038932335,,,,,,,,,0,1620,0,,,,,,,,,,,,,,,
2829804,1501038932345,3.72,,-0.0,-0.04,1.06,-2,-2,6,0,1590,0,,,,,,,,,,,,,,,
2829814,1501038932355,,,,,,,,,0,1545,0,,,,,,,,,,,,,,,
2829824,1501038932365,,,,,,,,,0,1530,0,,,,,,,,,,,,,,,
2829834,1501038932375,,,,,,,,,0,1485,0,,,,,,,,,,,,,,,
2829844,1501038932385,3.18,,0.01,-0.02,1.06,-2,-3,5,0,1455,0,36.113655,-115.146103,0.0,6.026,2044.7,9,3,1.9,0,0.0,-1,0.0,0.0,0.0,0
2829854,1501038932395,,,,,,,,,0,1380,0,,,,,,,,,,,,,,,
2829864,1501038932405,,,,,,,,,0,1545,0,,,,,,,,,,,,,,,
2829874,1501038932415,,,,,,,,,0,1620,0,,,,,,,,,,,,,,,
2829884,1501038932425,3.12,,-0.0,-0.06,1.07,-2,-1,5,0,1605,0,,,,,,,,,,,,,,,
2829894,1501038932435,,,,,,,,,0,1560,0,,,,,,,,,,,,,,,
2829904,1501038932445,,,,,,,,,0,1530,0,,,,,,,,,,,,,,,
2829914,1501038932455,,,,,,,,,0,1500,0,,,,,,,,,,,,,,,
2829924,1501038932465,3.05,,-0.0,-0.03,1.08,-2,-3,5,0,1470,0,,,,,,,,,,,,,,,
2829934,1501038932475,,,,,,,,,0,1395,0,,,,,,,,,,,,,,,
2829944,1501038932485,,,,,,,,,0,1560,0,36.113655,-115.146103,0.0,6.026,2044.7,9,3,1.9,0,0.0,-1,0.0,0.0,0.0,0
2829954,1501038932494,,,,,,,,,0,1635,0,,,,,,,,,,,,,,,
2829964,1501038932504,3.03,,0.0,-0.05,1.04,-2,-2,4,0,1575,0,,,,,,,,,,,,,,,
2829974,1501038932514,,,,,,,,,0,1545,0,,,,,,,,,,,,,,,
2829984,1501038932524,,,,,,,,,0,1515,0,,,,,,,,,,,,,,,
2829994,1501038932534,,,,,,,,,0,1515,0,,,,,,,,,,,,,,,
2830004,1501038932544,3.06,,0.0,-0.03,1.1,-1,-3,3,0,1410,0,,,,,,,,,,,,,,,
2830014,1501038932554,,,,,,,,,0,1575,0,,,,,,,,,,,,,,,
2830024,1501038932564,,,,,,,,,0,1635,0,,,,,,,,,,,,,,,
2830034,1501038932574,,,,,,,,,0,1620,0,,,,,,,,,,,,,,,
2830044,1501038932584,3.11,4.52,-0.01,0.0,1.07,-1,-2,2,0,1575,0,36.113655,-115.146103,0.0,6.026,2044.7,9,3,1.9,0,0.0,-1,0.0,0.0,0.0,0
2830054,1501038932594,,,,,,,,,0,1545,0,,,,,,,,,,,,,,,
2830064,1501038932604,,,,,,,,,0,1515,0,,,,,,,,,,,,,,,
2830074,1501038932614,,,,,,,,,0,1485,0,,,,,,,,,,,,,,,
2830084,1501038932624,3.19,,-0.01,0.04,1.03,-1,-4,2,0,1395,0,,,,,,,,,,,,,,,
2830094,1501038932634,,,,,,,,,0,1575,0,,,,,,,,,,,,,,,
2830104,1501038932644,,,,,,,,,0,1635,0,,,,,,,,,,,,,,,
2830114,1501038932654,,,,,,,,,0,1620,0,,,,,,,,,,,,,,,
2830124,1501038932664,3.15,,-0.02,0.08,1.0,-2,-3,2,0,1575,0,,,,,,,,,,,,,,,
2830134,1501038932674,,,,,,,,,0,1545,0,,,,,,,,,,,,,,,
2830144,1501038932684,,,,,,,,,0,1515,0,36.113655,-115.146103,0.0,6.026,2044.7,9,3,1.9,0,0.0,-1,0.0,0.0,0.0,0
2830154,1501038932694,,,,,,,,,0,1485,0,,,,,,,,,,,,,,,
2830164,1501038932704,3.05,,-0.0,0.04,0.97,-1,-5,1,0,1395,0,,,,,,,,,,,,,,,
2830174,1501038932714,,,,,,,,,0,1560,0,,,,,,,,,,,,,,,
2830184,1501038932724,,,,,,,,,0,1635,0,,,,,,,,,,,,,,,
2830194,1501038932734,,,,,,,,,0,1605,0,,,,,,,,,,,,,,,
2830204,1501038932744,3.11,,-0.0,0.03,0.95,-1,-5,2,0,1575,0,,,,,,,,,,,,,,,
2830214,1501038932754,,,,,,,,,0,1545,0,,,,,,,,,,,,,,,
2830224,1501038932764,,,,,,,,,0,1500,0,,,,,,,,,,,,,,,
2830234,1501038932774,,,,,,,,,0,1470,0,,,,,,,,,,,,,,,
2830244,1501038932784,3.07,,-0.02,0.01,0.92,1,-6,3,0,1380,0,36.113655,-115.146103,0.0,6.026,2044.7,9,3,1.9,0,0.0,-1,0.0,0.0,0.0,0
2830254,1501038932794,,,,,,,,,0,1560,0,,,,,,,,,,,,,,,
2830264,1501038932804,,,,,,,,,0,1620,0,,,,,,,,,,,,,,,
2830274,1501038932814,,,,,,,,,0,1605,0,,,,,,,,,,,,,,,
2830284,1501038932824,3.09,,-0.02,0.01,0.91,3,-6,5,0,1560,0,,,,,,,,,,,,,,,
2830294,1501038932834,,,,,,,,,0,1530,0,,,,,,,,,,,,,,,
2830304,1501038932844,,,,,,,,,0,1485,0,,,,,,,,,,,,,,,
2830314,1501038932854,,,,,,,,,0,1455,0,,,,,,,,,,,,,,,
2830324,1501038932864,3.1,,-0.01,-0.0,0.89,4,-6,5,0,1365,0,,,,,,,,,,,,,,,
2830334,1501038932874,,,,,,,,,0,1545,0,,,,,,,,,,,,,,,
2830344,1501038932884,,,,,,,,,0,1620,0,36.113655,-115.146103,0.0,6.026,2044.7,9,3,1.9,0,0.0,-1,0.0,0.0,0.0,0
2830354,1501038932894,,,,,,,,,0,1590,0,,,,,,,,,,,,,,,
2830364,1501038932904,3.13,,0.01,-0.01,0.9,4,-5,5,0,1545,0,,,,,,,,,,,,,,,
2830374,1501038932914,,,,,,,,,0,1515,0,,,,,,,,,,,,,,,
2830384,1501038932924,,,,,,,,,0,1470,0,,,,,,,,,,,,,,,
2830394,1501038932934,,,,,,,,,0,1440,0,,,,,,,,,,,,,,,
2830404,1501038932944,3.18,,0.0,-0.0,0.88,3,-6,5,0,1350,0,,,,,,,,,,,,,,,
2830414,1501038932954,,,,,,,,,0,1545,0,,,,,,,,,,,,,,,
2830424,1501038932964,,,,,,,,,0,1590,0,,,,,,,,,,,,,,,
2830434,1501038932974,,,,,,,,,0,1545,0,,,,,,,,,,,,,,,
2830444,1501038932984,3.09,,0.01,0.01,0.91,4,-5,4,0,1515,0,36.113655,-115.146103,0.0,6.026,2044.7,9,3,1.9,0,0.0,-1,0.0,0.0,0.0,0
2830454,1501038932994,,,,,,,,,0,1470,0,,,,,,,,,,,,,,,
2830464,1501038932998,,,,,,,,,0,1470,0,,,,,,,,,,,,,,,
2830474,1501038933008,,,,,,,,,0,1425,0,,,,,,,,,,,,,,,
2830484,1501038933018,3.15,,0.02,-0.01,0.91,5,-6,3,0,1335,0,,,,,,,,,,,,,,,
2830494,1501038933028,,,,,,,,,0,1605,0,,,,,,,,,,,,,,,
2830504,1501038933038,,,,,,,,,0,1575,0,,,,,,,,,,,,,,,
2830514,1501038933048,,,,,,,,,0,1530,0,,,,,,,,,,,,,,,
2830524,1501038933058,3.09,,0.03,-0.02,0.94,5,-5,4,0,1500,0,,,,,,,,,,,,,,,
2830534,1501038933068,,,,,,,,,0,1500,0,,,,,,,,,,,,,,,
2830544,1501038933078,,,,,,,,,0,1455,0,36.113655,-115.146103,0.0,6.026,2044.7,9,3,1.9,0,0.0,-1,0.0,0.0,0.0,0
2830554,1501038933094,,,,,,,,,0,1410,0,,,,,,,,,,,,,,,
2830564,1501038933104,3.14,,0.04,-0.03,0.94,5,-6,2,0,1290,0,,,,,,,,,,,,,,,
2830574,1501038933114,,,,,,,,,0,1500,0,,,,,,,,,,,,,,,
2830584,1501038933124,,,,,,,,,0,1575,0,,,,,,,,,,,,,,,
2830594,1501038933134,,,,,,,,,0,1545,0,,,,,,,,,,,,,,,
2830604,1501038933144,3.12,,0.05,-0.03,0.92,4,-6,3,0,1485,0,,,,,,,,,,,,,,,
2830614,1501038933154,,,,,,,,,0,1425,0,,,,,,,,,,,,,,,
2830624,1501038933164,,,,,,,,,0,1395,0,,,,,,,,,,,,,,,
2830634,1501038933174,,,,,,,,,0,1320,0,,,,,,,,,,,,,,,
2830644,1501038933184,3.09,,0.06,-0.01,0.95,5,-7,1,0,1200,0,36.113655,-115.146103,0.0,6.026,2044.7,9,3,1.9,0,0.0,-1,0.0,0.0,0.0,0
2830654,1501038933194,,,,,,,,,0,1410,0,,,,,,,,,,,,,,,
2830664,1501038933204,,,,,,,,,0,1515,0,,,,,,,,,,,,,,,
2830674,1501038933214,,,,,,,,,0,1470,0,,,,,,,,,,,,,,,
2830684,1501038933224,3.13,,0.07,-0.01,0.91,4,-5,0,0,1425,0,,,,,,,,,,,,,,,
2830694,1501038933234,,,,,,,,,0,1380,0,,,,,,,,,,,,,,,
2830704,1501038933244,,,,,,,,,0,1380,0,,,,,,,,,,,,,,,
2830714,1501038933254,,,,,,,,,0,1335,0,,,,,,,,,,,,,,,
2830724,1501038933264,3.2,,0.07,-0.04,0.98,3,-5,3,0,1275,0,,,,,,,,,,,,,,,
2830734,1501038933274,,,,,,,,,0,1140,0,,,,,,,,,,,,,,,
2830744,1501038933284,,,,,,,,,0,1395,0,36.113655,-115.146103,0.0,6.026,2044.7,9,3,1.9,0,0.0,-1,0.0,0.0,0.0,0
2830754,1501038933294,,,,,,,,,0,1500,0,,,,,,,,,,,,,,,
2830764,1501038933304,3.22,,0.06,-0.05,1.04,1,-5,6,0,1470,0,,,,,,,,,,,,,,,
2830774,1501038933314,,,,,,,,,0,1425,0,,,,,,,,,,,,,,,
2830784,1501038933324,,,,,,,,,0,1380,0,,,,,,,,,,,,,,,
2830794,1501038933334,,,,,,,,,0,1350,0,,,,,,,,,,,,,,,
2830804,1501038933344,3.25,,0.05,-0.04,1.07,1,-4,5,0,1350,0,,,,,,,,,,,,,,,
2830814,1501038933354,,,,,,,,,0,1305,0,,,,,,,,,,,,,,,
2830824,1501038933364,,,,,,,,,0,1185,0,,,,,,,,,,,,,,,
2830834,1501038933374,,,,,,,,,0,1440,0,,,,,,,,,,,,,,,
2830844,1501038933384,3.28,,0.04,-0.01,0.97,0,-5,5,0,1530,0,36.113655,-115.146103,0.0,6.026,2044.7,9,3,1.9,0,0.0,-1,0.0,0.0,0.0,0
2830854,1501038933394,,,,,,,,,0,1515,0,,,,,,,,,,,,,,,
2830864,1501038933404,,,,,,,,,0,1470,0,,,,,,,,,,,,,,,
2830874,1501038933414,,,,,,,,,0,1425,0,,,,,,,,,,,,,,,
2830884,1501038933424,3.26,,0.05,-0.02,0.93,-0,-5,4,0,1380,0,,,,,,,,,,,,,,,
2830894,1501038933434,,,,,,,,,0,1335,0,,,,,,,,,,,,,,,
2830904,1501038933444,,,,,,,,,0,1215,0,,,,,,,,,,,,,,,
2830914,1501038933454,,,,,,,,,0,1455,0,,,,,,,,,,,,,,,
2830924,1501038933464,3.24,,0.03,-0.02,0.85,-0,-5,4,0,1575,0,,,,,,,,,,,,,,,
2830934,1501038933474,,,,,,,,,0,1545,0,,,,,,,,,,,,,,,
2830944,1501038933484,,,,,,,,,0,1500,0,36.113655,-115.146103,0.0,6.026,2044.7,9,3,1.9,0,0.0,-1,0.0,0.0,0.0,0
2830954,1501038933493,,,,,,,,,0,1470,0,,,,,,,,,,,,,,,
2830964,1501038933503,3.22,,0.03,-0.02,0.82,-0,-5,4,0,1440,0,,,,,,,,,,,,,,,
2830974,1501038933513,,,,,,,,,0,1395,0,,,,,,,,,,,,,,,
2830984,1501038933523,,,,,,,,,0,1290,0,,,,,,,,,,,,,,,
2830994,1501038933533,,,,,,,,,0,1530,0,,,,,,,,,,,,,,,
2831004,1501038933543,3.2,,-0.01,-0.01,0.82,-0,-4,5,0,1635,0,,,,,,,,,,,,,,,
2831014,1501038933553,,,,,,,,,0,1605,0,,,,,,,,,,,,,,,
2831024,1501038933563,,,,,,,,,0,1575,170,,,,,,,,,,,,,,,
2831034,1501038933573,,,,,,,,,0,1530,170,,,,,,,,,,,,,,,
2831044,1501038933583,3.27,4.52,-0.0,-0.0,0.77,-1,-4,5,0,1500,170,36.113655,-115.146103,0.0,6.026,2044.7,9,3,1.9,0,0.0,-1,0.0,0.0,0.0,0
2831054,1501038933593,,,,,,,,,0,1455,170,,,,,,,,,,,,,,,
2831064,1501038933603,,,,,,,,,0,1365,170,,,,,,,,,,,,,,,
2831074,1501038933613,,,,,,,,,0,1575,170,,,,,,,,,,,,,,,
2831084,1501038933623,3.22,,0.01,0.0,0.69,-1,-7,4,0,1680,170,,,,,,,,,,,,,,,
2831094,1501038933633,,,,,,,,,0,1650,170,,,,,,,,,,,,,,,
2831104,1501038933643,,,,,,,,,0,1620,170,,,,,,,,,,,,,,,
2831114,1501038933653,,,,,,,,,0,1575,170,,,,,,,,,,,,,,,
2831124,1501038933663,3.23,,0.02,-0.02,0.65,-1,-8,5,0,1545,170,,,,,,,,,,,,,,,
2831134,1501038933673,,,,,,,,,0,1500,170,,,,,,,,,,,,,,,
2831144,1501038933683,,,,,,,,,0,1410,170,36.113655,-115.146103,0.0,6.026,2044.7,9,3,1.9,0,0.0,-1,0.0,0.0,0.0,0
2831154,1501038933693,,,,,,,,,0,1590,10000000,,,,,,,,,,,,,,,
2831164,1501038933703,3.19,,0.04,-0.04,0.57,-1,-10,4,0,1650,0,,,,,,,,,,,,,,,
2831174,1501038933713,,,,,,,,,0,1620,0,,,,,,,,,,,,,,,
2831184,1501038933723,,,,,,,,,0,1575,0,,,,,,,,,,,,,,,
2831194,1501038933733,,,,,,,,,0,1545,0,,,,,,,,,,,,,,,
2831204,1501038933743,3.2,,0.03,-0.05,0.62,-1,-8,4,0,1500,0,,,,,,,,,,,,,,,
2831214,1501038933753,,,,,,,,,0,1425,0,,,,,,,,,,,,,,,
2831224,1501038933763,,,,,,,,,0,1590,0,,,,,,,,,,,,,,,
2831234,1501038933773,,,,,,,,,0,1665,0,,,,,,,,,,,,,,,
2831244,1501038933783,3.16,,0.02,-0.06,0.69,-2,-7,3,0,1635,0,36.113655,-115.146103,0.0,6.026,2044.7,9,3,1.9,0,0.0,-1,0.0,0.0,0.0,0
