"Interval"|"ms"|0|0|1,"Utc"|"ms"|0|0|1,"Analog1"|""|0.0|5.0|25,"Battery"|"Volts"|0.0|20.0|1,"AccelX"|"G"|-3.0|3.0|25,"AccelY"|"G"|-3.0|3.0|25,"AccelZ"|"G"|-3.0|3.0|25,"Yaw"|"Deg/Sec"|-120|120|25,"Pitch"|"Deg/Sec"|-120|120|25,"Roll"|"Deg/Sec"|-120|120|25,"RPM"|""|0|10000|100,"EngineRPM"|""|0|10000|100,"AxleRpm"|""|0|10000|100,"Latitude"|"Degrees"|-180.0|180.0|10,"Longitude"|"Degrees"|-180.0|180.0|10,"Speed"|"mph"|0.0|150.0|10,"Distance"|"mi"|0.0|0.0|10,"Altitude"|"ft"|0.0|4000.0|10,"GPSSats"|""|0|20|10,"GPSQual"|""|0|5|10,"GPSDOP"|""|0.0|20.0|10,"LapCount"|""|0|0|10,"LapTime"|"Min"|0.0|0.0|10,"Sector"|""|0|0|10,"SectorTime"|"Min"|0.0|0.0|10,"PredTime"|"Min"|0.0|0.0|10,"ElapsedTime"|"Min"|0.0|0.0|10,"CurrentLap"|""|0|0|10
2858534,1501038961068,,,,,,,,,0,1500,0,,,,,,,,,,,,,,,
2858544,1501038961078,,,,,,,,,0,1590,0,36.113663,-115.145638,0.0,6.097,2051.4,9,3,1.9,0,0.0,-1,0.0,0.0,0.0,0
2858554,1501038961092,,,,,,,,,0,1665,0,,,,,,,,,,,,,,,
2858564,1501038961102,3.24,,-0.01,-0.03,0.96,-4,-6,3,0,1635,0,,,,,,,,,,,,,,,
2858574,1501038961112,,,,,,,,,0,1605,0,,,,,,,,,,,,,,,
2858584,1501038961122,,,,,,,,,0,1575,0,,,,,,,,,,,,,,,
2858594,1501038961132,,,,,,,,,0,1545,0,,,,,,,,,,,,,,,
2858604,1501038961142,3.22,,-0.01,-0.05,0.99,-3,-5,2,0,1500,0,,,,,,,,,,,,,,,
2858614,1501038961152,,,,,,,,,0,1440,0,,,,,,,,,,,,,,,
2858624,1501038961162,,,,,,,,,0,1590,0,,,,,,,,,,,,,,,
2858634,1501038961172,,,,,,,,,0,1650,0,,,,,,,,,,,,,,,
2858644,1501038961182,3.2,,-0.03,-0.09,1.03,-4,-5,4,0,1635,0,36.113663,-115.145638,0.0,6.097,2051.4,9,3,1.9,0,0.0,-1,0.0,0.0,0.0,0
2858654,1501038961194,,,,,,,,,0,1590,0,,,,,,,,,,,,,,,
2858664,1501038961204,,,,,,,,,0,1575,0,,,,,,,,,,,,,,,
2858674,1501038961214,,,,,,,,,0,1545,0,,,,,,,,,,,,,,,
2858684,1501038961224,3.21,,0.0,-0.05,1.03,-4,-4,5,0,1500,0,,,,,,,,,,,,,,,
2858694,1501038961234,,,,,,,,,0,1425,0,,,,,,,,,,,,,,,
2858704,1501038961244,,,,,,,,,0,1590,0,,,,,,,,,,,,,,,
2858714,1501038961254,,,,,,,,,0,1650,0,,,,,,,,,,,,,,,
2858724,1501038961264,3.19,,0.02,-0.08,1.0,-3,0,7,0,1635,0,,,,,,,,,,,,,,,
2858734,1501038961274,,,,,,,,,0,1590,0,,,,,,,,,,,,,,,
2858744,1501038961284,,,,,,,,,0,1575,0,36.113663,-115.145638,0.0,6.097,2051.4,9,3,1.9,0,0.0,-1,0.0,0.0,0.0,0
2858754,1501038961294,,,,,,,,,0,1530,0,,,,,,,,,,,,,,,
2858764,1501038961304,3.18,,-0.01,-0.05,1.06,-3,2,6,0,1500,0,,,,,,,,,,,,,,,
2858774,1501038961314,,,,,,,,,0,1590,0,,,,,,,,,,,,,,,
2858784,1501038961324,,,,,,,,,0,1650,0,,,,,,,,,,,,,,,
2858794,1501038961334,,,,,,,,,0,1635,0,,,,,,,,,,,,,,,
2858804,1501038961344,3.19,,-0.03,-0.01,1.08,-3,0,6,0,1590,0,,,,,,,,,,,,,,,
2858814,1501038961354,,,,,,,,,0,1560,0,,,,,,,,,,,,,,,
2858824,1501038961364,,,,,,,,,0,1530,0,,,,,,,,,,,,,,,
2858834,1501038961374,,,,,,,,,0,1500,0,,,,,,,,,,,,,,,
2858844,1501038961384,3.16,,-0.02,-0.03,1.03,-2,-1,5,0,1425,0,36.113663,-115.145638,0.0,6.097,2051.4,9,3,1.9,0,0.0,-1,0.0,0.0,0.0,0
2858854,1501038961394,,,,,,,,,0,1590,0,,,,,,,,,,,,,,,
2858864,1501038961404,,,,,,,,,0,1650,0,,,,,,,,,,,,,,,
2858874,1501038961414,,,,,,,,,0,1635,0,,,,,,,,,,,,,,,
2858884,1501038961424,3.21,,0.02,-0.02,1.02,-2,-4,5,0,1590,0,,,,,,,,,,,,,,,
2858894,1501038961434,,,,,,,,,0,1575,0,,,,,,,,,,,,,,,
2858904,1501038961444,,,,,,,,,0,1545,0,,,,,,,,,,,,,,,
2858914,1501038961454,,,,,,,,,0,1515,0,,,,,,,,,,,,,,,
2858924,1501038961464,3.16,,0.02,-0.05,0.98,-2,-5,6,0,1440,0,,,,,,,,,,,,,,,
2858934,1501038961474,,,,,,,,,0,1590,0,,,,,,,,,,,,,,,
2858944,1501038961484,,,,,,,,,0,1665,0,36.113663,-115.145638,0.0,6.097,2051.4,9,3,1.9,0,0.0,-1,0.0,0.0,0.0,0
2858954,1501038961494,,,,,,,,,0,1635,0,,,,,,,,,,,,,,,
2858964,1501038961504,3.14,,0.04,-0.03,0.98,-2,-6,6,0,1575,0,,,,,,,,,,,,,,,
2858974,1501038961514,,,,,,,,,0,1545,0,,,,,,,,,,,,,,,
2858984,1501038961524,,,,,,,,,0,1500,0,,,,,,,,,,,,,,,
2858994,1501038961534,,,,,,,,,0,1440,0,,,,,,,,,,,,,,,
2859004,1501038961544,3.2,,0.02,-0.03,0.96,-2,-6,4,0,1590,0,,,,,,,,,,,,,,,
2859014,1501038961554,,,,,,,,,0,1650,0,,,,,,,,,,,,,,,
2859024,1501038961564,,,,,,,,,0,1635,0,,,,,,,,,,,,,,,
2859034,1501038961574,,,,,,,,,0,1590,0,,,,,,,,,,,,,,,
2859044,1501038961584,3.19,4.5,-0.01,-0.04,1.01,-2,-6,4,0,1560,0,36.113663,-115.145638,0.0,6.097,2051.4,9,3,1.9,0,0.0,-1,0.0,0.0,0.0,0
2859054,1501038961595,,,,,,,,,0,1545,0,,,,,,,,,,,,,,,
2859064,1501038961605,,,,,,,,,0,1500,0,,,,,,,,,,,,,,,
2859074,1501038961615,,,,,,,,,0,1425,0,,,,,,,,,,,,,,,
2859084,1501038961625,3.21,,-0.04,-0.01,0.98,-2,-4,5,0,1590,0,,,,,,,,,,,,,,,
2859094,1501038961635,,,,,,,,,0,1650,0,,,,,,,,,,,,,,,
2859104,1501038961645,,,,,,,,,0,1635,0,,,,,,,,,,,,,,,
2859114,1501038961655,,,,,,,,,0,1590,0,,,,,,,,,,,,,,,
2859124,1501038961665,3.24,,-0.02,-0.06,0.96,-2,-2,5,0,1575,0,,,,,,,,,,,,,,,
2859134,1501038961675,,,,,,,,,0,1545,0,,,,,,,,,,,,,,,
2859144,1501038961685,,,,,,,,,0,1500,0,36.113663,-115.145638,0.0,6.097,2051.4,9,3,1.9,0,0.0,-1,0.0,0.0,0.0,0
2859154,1501038961693,,,,,,,,,0,1440,0,,,,,,,,,,,,,,,
2859164,1501038961703,3.22,,0.01,-0.03,1.03,-3,-2,7,0,1590,0,,,,,,,,,,,,,,,
2859174,1501038961713,,,,,,,,,0,1635,0,,,,,,,,,,,,,,,
2859184,1501038961723,,,,,,,,,0,1590,0,,,,,,,,,,,,,,,
2859194,1501038961733,,,,,,,,,0,1575,0,,,,,,,,,,,,,,,
2859204,1501038961743,3.21,,-0.01,-0.03,1.0,-2,-3,5,0,1545,0,,,,,,,,,,,,,,,
2859214,1501038961753,,,,,,,,,0,1515,0,,,,,,,,,,,,,,,
2859224,1501038961763,,,,,,,,,0,1440,0,,,,,,,,,,,,,,,
2859234,1501038961773,,,,,,,,,0,1590,0,,,,,,,,,,,,,,,
2859244,1501038961783,3.23,,-0.02,-0.05,1.0,-1,-4,4,0,1650,0,36.113663,-115.145638,0.0,6.097,2051.4,9,3,1.9,0,0.0,-1,0.0,0.0,0.0,0
2859254,1501038961795,,,,,,,,,0,1635,0,,,,,,,,,,,,,,,
2859264,1501038961805,,,,,,,,,0,1590,0,,,,,,,,,,,,,,,
2859274,1501038961815,,,,,,,,,0,1575,0,,,,,,,,,,,,,,,
2859284,1501038961825,3.25,,-0.02,-0.01,0.96,-1,-4,4,0,1545,0,,,,,,,,,,,,,,,
2859294,1501038961835,,,,,,,,,0,1515,0,,,,,,,,,,,,,,,
2859304,1501038961845,,,,,,,,,0,1440,0,,,,,,,,,,,,,,,
2859314,1501038961855,,,,,,,,,0,1590,0,,,,,,,,,,,,,,,
2859324,1501038961865,3.23,,0.01,-0.05,0.94,-0,-6,2,0,1665,0,,,,,,,,,,,,,,,
2859334,1501038961875,,,,,,,,,0,1635,0,,,,,,,,,,,,,,,
2859344,1501038961885,,,,,,,,,0,1605,0,36.113663,-115.145638,0.0,6.097,2051.4,9,3,1.9,0,0.0,-1,0.0,0.0,0.0,0
2859354,1501038961895,,,,,,,,,0,1575,0,,,,,,,,,,,,,,,
2859364,1501038961905,3.22,,0.0,-0.04,0.94,-2,-6,4,0,1545,0,,,,,,,,,,,,,,,
2859374,1501038961915,,,,,,,,,0,1515,0,,,,,,,,,,,,,,,
2859384,1501038961925,,,,,,,,,0,1440,0,,,,,,,,,,,,,,,
2859394,1501038961935,,,,,,,,,0,1665,0,,,,,,,,,,,,,,,
2859404,1501038961945,3.22,,0.02,0.0,0.88,-2,-7,4,0,1635,0,,,,,,,,,,,,,,,
2859414,1501038961955,,,,,,,,,0,1605,0,,,,,,,,,,,,,,,
2859424,1501038961965,,,,,,,,,0,1575,0,,,,,,,,,,,,,,,
2859434,1501038961975,,,,,,,,,0,1545,0,,,,,,,,,,,,,,,
2859444,1501038961985,3.23,,0.01,-0.05,0.93,-1,-6,4,0,1515,0,36.113663,-115.145638,0.0,6.097,2051.4,9,3,1.9,0,0.0,-1,0.0,0.0,0.0,0
2859454,1501038961995,,,,,,,,,0,1440,0,,,,,,,,,,,,,,,
2859464,1501038961997,,,,,,,,,0,1590,0,,,,,,,,,,,,,,,
2859474,1501038962007,,,,,,,,,0,1665,0,,,,,,,,,,,,,,,
2859484,1501038962017,3.22,,-0.03,-0.05,0.91,-1,-3,4,0,1635,0,,,,,,,,,,,,,,,
2859494,1501038962027,,,,,,,,,0,1605,0,,,,,,,,,,,,,,,
2859504,1501038962037,,,,,,,,,0,1575,0,,,,,,,,,,,,,,,
2859514,1501038962047,,,,,,,,,0,1545,0,,,,,,,,,,,,,,,
2859524,1501038962057,3.23,,-0.01,-0.02,0.96,-2,-3,4,0,1515,0,,,,,,,,,,,,,,,
2859534,1501038962067,,,,,,,,,0,1440,0,,,,,,,,,,,,,,,
2859544,1501038962077,,,,,,,,,0,1605,0,36.113663,-115.145638,0.0,6.097,2051.4,9,3,1.9,0,0.0,-1,0.0,0.0,0.0,0
2859554,1501038962087,,,,,,,,,0,1665,0,,,,,,,,,,,,,,,
2859564,1501038962097,3.21,,-0.03,-0.05,0.97,-2,-2,3,0,1635,0,,,,,,,,,,,,,,,
2859574,1501038962107,,,,,,,,,0,1605,0,,,,,,,,,,,,,,,
2859584,1501038962117,,,,,,,,,0,1575,0,,,,,,,,,,,,,,,
2859594,1501038962127,,,,,,,,,0,1545,0,,,,,,,,,,,,,,,
2859604,1501038962137,3.21,,-0.05,-0.03,1.05,-2,-3,4,0,1515,0,,,,,,,,,,,,,,,
2859614,1501038962147,,,,,,,,,0,1590,0,,,,,,,,,,,,,,,
2859624,1501038962157,,,,,,,,,0,1665,0,,,,,,,,,,,,,,,
2859634,1501038962167,,,,,,,,,0,1635,0,,,,,,,,,,,,,,,
2859644,1501038962177,3.21,,-0.02,-0.01,1.04,-1,-5,6,0,1605,0,36.113663,-115.145638,0.0,6.097,2051.4,9,3,1.9,0,0.0,-1,0.0,0.0,0.0,0
2859654,1501038962193,,,,,,,,,0,1575,0,,,,,,,,,,,,,,,
2859664,1501038962203,,,,,,,,,0,1545,0,,,,,,,,,,,,,,,
2859674,1501038962213,,,,,,,,,0,1515,0,,,,,,,,,,,,,,,
2859684,1501038962223,3.19,,-0.01,-0.05,0.97,-1,-5,3,0,1440,0,,,,,,,,,,,,,,,
2859694,1501038962233,,,,,,,,,0,1590,0,,,,,,,,,,,,,,,
2859704,1501038962243,,,,,,,,,0,1665,0,,,,,,,,,,,,,,,
2859714,1501038962253,,,,,,,,,0,1635,0,,,,,,,,,,,,,,,
2859724,1501038962263,3.2,,0.02,-0.02,0.97,-1,-7,3,0,1605,0,,,,,,,,,,,,,,,
2859734,1501038962273,,,,,,,,,0,1575,0,,,,,,,,,,,,,,,
2859744,1501038962283,,,,,,,,,0,1545,0,36.113663,-115.145638,0.0,6.097,2051.4,9,3,1.9,0,0.0,-1,0.0,0.0,0.0,0
2859754,1501038962295,,,,,,,,,0,1515,0,,,,,,,,,,,,,,,
2859764,1501038962305,3.18,,0.02,-0.03,0.92,-1,-8,4,0,1440,0,,,,,,,,,,,,,,,
2859774,1501038962315,,,,,,,,,0,1590,0,,,,,,,,,,,,,,,
2859784,1501038962325,,,,,,,,,0,1635,0,,,,,,,,,,,,,,,
2859794,1501038962335,,,,,,,,,0,1605,0,,,,,,,,,,,,,,,
2859804,1501038962345,3.15,,0.03,-0.02,0.95,-2,-8,5,0,1575,0,,,,,,,,,,,,,,,
2859814,1501038962355,,,,,,,,,0,1545,0,,,,,,,,,,,,,,,
2859824,1501038962365,,,,,,,,,0,1515,0,,,,,,,,,,,,,,,
2859834,1501038962375,,,,,,,,,0,1440,0,,,,,,,,,,,,,,,
2859844,1501038962385,3.2,,0.01,-0.03,0.92,-2,-8,4,0,1590,0,36.113663,-115.145638,0.0,6.097,2051.4,9,3,1.9,0,0.0,-1,0.0,0.0,0.0,0
2859854,1501038962395,,,,,,,,,0,1650,0,,,,,,,,,,,,,,,
2859864,1501038962405,,,,,,,,,0,1635,0,,,,,,,,,,,,,,,
2859874,1501038962415,,,,,,,,,0,1590,0,,,,,,,,,,,,,,,
2859884,1501038962425,3.21,,-0.02,-0.05,0.99,-1,-7,4,0,1560,0,,,,,,,,,,,,,,,
2859894,1501038962435,,,,,,,,,0,1530,0,,,,,,,,,,,,,,,
2859904,1501038962445,,,,,,,,,0,1500,0,,,,,,,,,,,,,,,
2859914,1501038962455,,,,,,,,,0,1425,0,,,,,,,,,,,,,,,
2859924,1501038962465,3.21,,-0.03,0.01,0.97,-2,-4,5,0,1590,0,,,,,,,,,,,,,,,
2859934,1501038962475,,,,,,,,,0,1650,0,,,,,,,,,,,,,,,
2859944,1501038962485,,,,,,,,,0,1635,0,36.113663,-115.145638,0.0,6.097,2051.4,9,3,1.9,0,0.0,-1,0.0,0.0,0.0,0
2859954,1501038962494,,,,,,,,,0,1590,0,,,,,,,,,,,,,,,
2859964,1501038962504,3.2,,-0.02,-0.04,0.96,-1,-3,5,0,1560,0,,,,,,,,,,,,,,,
2859974,1501038962514,,,,,,,,,0,1530,0,,,,,,,,,,,,,,,
2859984,1501038962524,,,,,,,,,0,1500,0,,,,,,,,,,,,,,,
2859994,1501038962534,,,,,,,,,0,1440,0,,,,,,,,,,,,,,,
2860004,1501038962544,3.21,,-0.0,-0.02,1.13,-3,-2,7,0,1590,0,,,,,,,,,,,,,,,
2860014,1501038962554,,,,,,,,,0,1635,0,,,,,,,,,,,,,,,
2860024,1501038962564,,,,,,,,,0,1590,0,,,,,,,,,,,,,,,
2860034,1501038962574,,,,,,,,,0,1575,0,,,,,,,,,,,,,,,
2860044,1501038962584,3.21,4.49,-0.02,-0.01,1.07,-2,-3,4,0,1530,0,36.113663,-115.145638,0.0,6.097,2051.4,9,3,2.0,0,0.0,-1,0.0,0.0,0.0,0
2860054,1501038962594,,,,,,,,,0,1500,0,,,,,,,,,,,,,,,
2860064,1501038962604,,,,,,,,,0,1425,0,,,,,,,,,,,,,,,
2860074,1501038962614,,,,,,,,,0,1590,0,,,,,,,,,,,,,,,
2860084,1501038962624,3.21,,-0.04,-0.02,1.06,-2,-4,4,0,1650,0,,,,,,,,,,,,,,,
2860094,1501038962634,,,,,,,,,0,1635,0,,,,,,,,,,,,,,,
2860104,1501038962644,,,,,,,,,0,1590,0,,,,,,,,,,,,,,,
2860114,1501038962654,,,,,,,,,0,1575,0,,,,,,,,,,,,,,,
2860124,1501038962664,3.23,,-0.03,0.02,1.0,-1,-4,4,0,1530,0,,,,,,,,,,,,,,,
2860134,1501038962674,,,,,,,,,0,1500,0,,,,,,,,,,,,,,,
2860144,1501038962684,,,,,,,,,0,1425,0,36.113663,-115.145638,0.0,6.097,2051.4,9,3,2.0,0,0.0,-1,0.0,0.0,0.0,0
2860154,1501038962694,,,,,,,,,0,1590,0,,,,,,,,,,,,,,,
2860164,1501038962704,3.23,,-0.0,-0.01,0.98,-1,-6,1,0,1665,0,,,,,,,,,,,,,,,
2860174,1501038962714,,,,,,,,,0,1635,0,,,,,,,,,,,,,,,
2860184,1501038962724,,,,,,,,,0,1590,0,,,,,,,,,,,,,,,
2860194,1501038962734,,,,,,,,,0,1575,0,,,,,,,,,,,,,,,
2860204,1501038962744,3.23,,-0.02,-0.03,0.98,-1,-5,3,0,1545,0,,,,,,,,,,,,,,,
2860214,1501038962754,,,,,,,,,0,1515,0,,,,,,,,,,,,,,,
2860224,1501038962764,,,,,,,,,0,1440,0,,,,,,,,,,,,,,,
2860234,1501038962774,,,,,,,,,0,1650,0,,,,,,,,,,,,,,,
2860244,1501038962784,3.2,,0.0,-0.0,0.95,-2,-7,4,0,1635,0,36.113663,-115.145638,0.0,6.097,2051.4,9,3,1.9,0,0.0,-1,0.0,0.0,0.0,0
2860254,1501038962794,,,,,,,,,0,1590,0,,,,,,,,,,,,,,,
2860264,1501038962804,,,,,,,,,0,1560,0,,,,,,,,,,,,,,,
2860274,1501038962814,,,,,,,,,0,1530,0,,,,,,,,,,,,,,,
2860284,1501038962824,3.24,,0.01,-0.05,0.97,-2,-6,4,0,1515,0,,,,,,,,,,,,,,,
2860294,1501038962834,,,,,,,,,0,1425,0,,,,,,,,,,,,,,,
2860304,1501038962844,,,,,,,,,0,1590,0,,,,,,,,,,,,,,,
2860314,1501038962854,,,,,,,,,0,1650,0,,,,,,,,,,,,,,,
2860324,1501038962864,3.22,,-0.03,-0.06,0.95,-1,-4,4,0,1620,0,,,,,,,,,,,,,,,
2860334,1501038962874,,,,,,,,,0,1590,0,,,,,,,,,,,,,,,
2860344,1501038962884,,,,,,,,,0,1560,0,36.113663,-115.145638,0.0,6.097,2051.4,9,3,2.0,0,0.0,-1,0.0,0.0,0.0,0
2860354,1501038962894,,,,,,,,,0,1530,0,,,,,,,,,,,,,,,
2860364,1501038962904,3.23,,-0.02,-0.01,0.99,-1,-4,3,0,1500,0,,,,,,,,,,,,,,,
2860374,1501038962914,,,,,,,,,0,1425,0,,,,,,,,,,,,,,,
2860384,1501038962924,,,,,,,,,0,1575,0,,,,,,,,,,,,,,,
2860394,1501038962934,,,,,,,,,0,1650,0,,,,,,,,,,,,,,,
2860404,1501038962944,3.22,,-0.03,-0.04,0.96,-2,-3,5,0,1620,0,,,,,,,,,,,,,,,
2860414,1501038962954,,,,,,,,,0,1590,0,,,,,,,,,,,,,,,
2860424,1501038962964,,,,,,,,,0,1560,0,,,,,,,,,,,,,,,
2860434,1501038962974,,,,,,,,,0,1515,0,,,,,,,,,,,,,,,
2860444,1501038962984,3.22,,-0.02,-0.0,1.04,-2,-3,6,0,1485,0,36.113663,-115.145638,0.0,6.097,2051.4,9,3,2.0,0,0.0,-1,0.0,0.0,0.0,0
2860454,1501038962994,,,,,,,,,0,1410,0,,,,,,,,,,,,,,,
2860464,1501038962998,,,,,,,,,0,1575,0,,,,,,,,,,,,,,,
2860474,1501038963008,,,,,,,,,0,1620,0,,,,,,,,,,,,,,,
2860484,1501038963018,3.16,,-0.03,0.0,1.06,-2,-2,3,0,1575,0,,,,,,,,,,,,,,,
2860494,1501038963028,,,,,,,,,0,1545,0,,,,,,,,,,,,,,,
2860504,1501038963038,,,,,,,,,0,1515,0,,,,,,,,,,,,,,,
2860514,1501038963048,,,,,,,,,0,1515,0,,,,,,,,,,,,,,,
2860524,1501038963058,3.17,,-0.06,0.01,1.09,-1,-2,2,0,1395,0,,,,,,,,,,,,,,,
2860534,1501038963068,,,,,,,,,0,1560,0,,,,,,,,,,,,,,,
2860544,1501038963078,,,,,,,,,0,1620,0,36.113663,-115.145638,0.0,6.097,2051.4,9,3,2.0,0,0.0,-1,0.0,0.0,0.0,0
2860554,1501038963092,,,,,,,,,0,1590,0,,,,,,,,,,,,,,,
2860564,1501038963102,3.2,,-0.02,0.02,1.09,-1,-4,4,0,1560,0,,,,,,,,,,,,,,,
2860574,1501038963112,,,,,,,,,0,1515,0,,,,,,,,,,,,,,,
2860584,1501038963122,,,,,,,,,0,1485,0,,,,,,,,,,,,,,,
2860594,1501038963132,,,,,,,,,0,1455,0,,,,,,,,,,,,,,,
2860604,1501038963142,3.18,,-0.03,-0.0,1.07,-0,-4,3,0,1365,0,,,,,,,,,,,,,,,
2860614,1501038963152,,,,,,,,,0,1545,0,,,,,,,,,,,,,,,
2860624,1501038963162,,,,,,,,,0,1620,0,,,,,,,,,,,,,,,
2860634,1501038963172,,,,,,,,,0,1590,0,,,,,,,,,,,,,,,
2860644,1501038963182,3.19,,-0.02,0.03,1.0,-1,-5,4,0,1545,0,36.113663,-115.145638,0.0,6.097,2051.4,9,3,2.0,0,0.0,-1,0.0,0.0,0.0,0
2860654,1501038963194,,,,,,,,,0,1515,0,,,,,,,,,,,,,,,
2860664,1501038963204,,,,,,,,,0,1485,0,,,,,,,,,,,,,,,
2860674,1501038963214,,,,,,,,,0,1455,0,,,,,,,,,,,,,,,
2860684,1501038963224,3.19,,-0.03,0.01,0.97,-0,-6,3,0,1350,0,,,,,,,,,,,,,,,
2860694,1501038963234,,,,,,,,,0,1545,0,,,,,,,,,,,,,,,
2860704,1501038963244,,,,,,,,,0,1620,0,,,,,,,,,,,,,,,
2860714,1501038963254,,,,,,,,,0,1590,0,,,,,,,,,,,,,,,
2860724,1501038963264,3.21,,-0.02,0.03,0.93,-1,-6,4,0,1560,0,,,,,,,,,,,,,,,
2860734,1501038963274,,,,,,,,,0,1530,0,,,,,,,,,,,,,,,
2860744,1501038963284,,,,,,,,,0,1485,0,36.113663,-115.145638,0.0,6.097,2051.4,9,3,2.0,0,0.0,-1,0.0,0.0,0.0,0
2860754,1501038963294,,,,,,,,,0,1455,0,,,,,,,,,,,,,,,
2860764,1501038963304,3.18,,-0.02,-0.0,0.91,-0,-7,2,0,1365,0,,,,,,,,,,,,,,,
2860774,1501038963314,,,,,,,,,0,1545,0,,,,,,,,,,,,,,,
2860784,1501038963324,,,,,,,,,0,1620,0,,,,,,,,,,,,,,,
2860794,1501038963334,,,,,,,,,0,1605,0,,,,,,,,,,,,,,,
2860804,1501038963344,3.21,,-0.0,0.01,0.91,-1,-8,2,0,1560,0,,,,,,,,,,,,,,,
2860814,1501038963354,,,,,,,,,0,1530,0,,,,,,,,,,,,,,,
2860824,1501038963364,,,,,,,,,0,1485,0,,,,,,,,,,,,,,,
2860834,1501038963374,,,,,,,,,0,1455,0,,,,,,,,,,,,,,,
2860844,1501038963384,3.19,,0.0,-0.04,0.9,-0,-9,2,0,1365,0,36.113663,-115.145638,0.0,6.097,2051.4,9,3,2.0,0,0.0,-1,0.0,0.0,0.0,0
2860854,1501038963394,,,,,,,,,0,1545,0,,,,,,,,,,,,,,,
2860864,1501038963404,,,,,,,,,0,1635,0,,,,,,,,,,,,,,,
2860874,1501038963414,,,,,,,,,0,1605,0,,,,,,,,,,,,,,,
2860884,1501038963424,3.21,,0.03,-0.04,0.9,0,-10,1,0,1560,0,,,,,,,,,,,,,,,
2860894,1501038963434,,,,,,,,,0,1530,0,,,,,,,,,,,,,,,
2860904,1501038963444,,,,,,,,,0,1500,0,,,,,,,,,,,,,,,
2860914,1501038963454,,,,,,,,,0,1470,0,,,,,,,,,,,,,,,
2860924,1501038963464,3.19,,0.06,-0.06,0.91,-0,-11,2,0,1365,0,,,,,,,,,,,,,,,
2860934,1501038963474,,,,,,,,,0,1560,0,,,,,,,,,,,,,,,
2860944,1501038963484,,,,,,,,,0,1635,0,36.113663,-115.145638,0.0,6.097,2051.4,9,3,1.9,0,0.0,-1,0.0,0.0,0.0,0
2860954,1501038963494,,,,,,,,,0,1605,0,,,,,,,,,,,,,,,
2860964,1501038963504,3.21,,0.09,-0.04,0.91,-0,-11,2,0,1560,0,,,,,,,,,,,,,,,
2860974,1501038963514,,,,,,,,,0,1530,0,,,,,,,,,,,,,,,
2860984,1501038963524,,,,,,,,,0,1500,0,,,,,,,,,,,,,,,
2860994,1501038963534,,,,,,,,,0,1455,0,,,,,,,,,,,,,,,
2861004,1501038963544,3.22,,0.15,-0.04,0.94,-1,-14,3,0,1350,0,,,,,,,,,,,,,,,
2861014,1501038963554,,,,,,,,,0,1530,0,,,,,,,,,,,,,,,
2861024,1501038963564,,,,,,,,,0,1620,0,,,,,,,,,,,,,,,
2861034,1501038963574,,,,,,,,,0,1605,0,,,,,,,,,,,,,,,
2861044,1501038963584,3.21,4.49,0.18,-0.03,0.92,-0,-14,5,0,1545,0,36.113663,-115.145638,0.0,6.097,2051.4,9,3,1.9,0,0.0,-1,0.0,0.0,0.0,0
2861054,1501038963595,,,,,,,,,0,1515,0,,,,,,,,,,,,,,,
2861064,1501038963605,,,,,,,,,0,1485,0,,,,,,,,,,,,,,,
2861074,1501038963615,,,,,,,,,0,1440,0,,,,,,,,,,,,,,,
2861084,1501038963625,3.22,,0.25,-0.03,0.94,0,-18,5,0,1305,0,,,,,,,,,,,,,,,
2861094,1501038963635,,,,,,,,,0,1470,0,,,,,,,,,,,,,,,
2861104,1501038963645,,,,,,,,,0,1560,0,,,,,,,,,,,,,,,
2861114,1501038963655,,,,,,,,,0,1530,0,,,,,,,,,,,,,,,
2861124,1501038963665,3.22,,0.26,-0.02,0.88,1,-18,6,0,1485,0,,,,,,,,,,,,,,,
2861134,1501038963675,,,,,,,,,0,1440,0,,,,,,,,,,,,,,,
2861144,1501038963685,,,,,,,,,0,1410,0,36.113663,-115.145638,0.0,6.097,2051.4,9,3,1.9,0,0.0,-1,0.0,0.0,0.0,0
2861154,1501038963695,,,,,,,,,0,1350,0,,,,,,,,,,,,,,,
2861164,1501038963705,3.18,,0.29,-0.02,0.88,3,-20,5,0,1230,0,,,,,,,,,,,,,,,
2861174,1501038963715,,,,,,,,,0,1395,0,,,,,,,,,,,,,,,
2861184,1501038963725,,,,,,,,,0,1515,0,,,,,,,,,,,,,,,
2861194,1501038963735,,,,,,,,,0,1470,0,,,,,,,,,,,,,,,
2861204,1501038963745,3.12,,0.34,-0.01,0.89,4,-21,4,0,1425,0,,,,,,,,,,,,,,,
2861214,1501038963755,,,,,,,,,0,1395,130,,,,,,,,,,,,,,,
2861224,1501038963765,,,,,,,,,0,1365,130,,,,,,,,,,,,,,,
2861234,1501038963775,,,,,,,,,0,1365,130,,,,,,,,,,,,,,,
2861244,1501038963785,3.17,,0.38,-0.02,0.89,3,-17,4,0,1320,130,36.113663,-115.145638,0.0,6.097,2051.4,9,3,1.9,0,0.0,-1,0.0,0.0,0.0,0
2861254,1501038963793,,,,,,,,,0,1215,130,,,,,,,,,,,,,,,
2861264,1501038963803,,,,,,,,,0,1440,130,,,,,,,,,,,,,,,
2861274,1501038963813,,,,,,,,,0,1560,130,,,,,,,,,,,,,,,
2861284,1501038963823,3.16,,0.38,-0.02,0.86,2,-13,5,0,1530,130,,,,,,,,,,,,,,,
2861294,1501038963833,,,,,,,,,0,1500,130,,,,,,,,,,,,,,,
2861304,1501038963843,,,,,,,,,0,1470,130,,,,,,,,,,,,,,,
2861314,1501038963853,,,,,,,,,0,1440,130,,,,,,,,,,,,,,,
2861324,1501038963863,3.2,,0.41,-0.01,0.88,2,-11,5,0,1410,130,,,,,,,,,,,,,,,
2861334,1501038963873,,,,,,,,,0,1305,130,,,,,,,,,,,,,,,
2861344,1501038963883,,,,,,,,,0,1560,130,36.113663,-115.145638,0.0,6.097,2051.4,9,3,1.9,0,0.0,-1,0.0,0.0,0.0,0
2861354,1501038963893,,,,,,,,,0,1665,130,,,,,,,,,,,,,,,
2861364,1501038963903,3.14,,0.37,-0.02,0.85,1,-8,4,0,1665,10000000,,,,,,,,,,,,,,,
2861374,1501038963913,,,,,,,,,0,1620,0,,,,,,,,,,,,,,,
2861384,1501038963923,,,,,,,,,0,1590,0,,,,,,,,,,,,,,,
2861394,1501038963933,,,,,,,,,0,1560,760,,,,,,,,,,,,,,,
2861404,1501038963943,3.18,,0.36,-0.03,0.98,1,-6,3,0,1470,760,,,,,,,,,,,,,,,
2861414,1501038963953,,,,,,,,,0,1710,760,,,,,,,,,,,,,,,
2861424,1501038963963,,,,,,,,,0,1830,760,,,,,,,,,,,,,,,
2861434,1501038963973,,,,,,,,,0,1815,760,,,,,,,,,,,,,,,
2861444,1501038963983,3.19,,0.38,-0.01,1.03,0,-5,2,0,1770,760,36.113663,-115.145638,0.0,6.097,2051.4,9,3,1.9,0,0.0,-1,0.0,0.0,0.0,0
2861454,1501038963993,,,,,,,,,0,1755,760,,,,,,,,,,,,,,,
2861464,1501038963997,,,,,,,,,0,1725,760,,,,,,,,,,,,,,,
2861474,1501038964007,,,,,,,,,0,1635,760,,,,,,,,,,,,,,,
2861484,1501038964017,3.2,,0.34,-0.03,0.93,1,-5,1,0,1860,760,,,,,,,,,,,,,,,
2861494,1501038964027,,,,,,,,,0,1950,760,,,,,,,,,,,,,,,
2861504,1501038964037,,,,,,,,,0,1920,760,,,,,,,,,,,,,,,
2861514,1501038964047,,,,,,,,,0,1905,760,,,,,,,,,,,,,,,
2861524,1501038964057,3.16,,0.3,-0.02,0.9,1,-4,0,0,1890,760,,,,,,,,,,,,,,,
2861534,1501038964067,,,,,,,,,0,1785,0,,,,,,,,,,,,,,,
2861544,1501038964077,,,,,,,,,0,2010,170,36.113663,-115.145638,1.4,6.097,2042.7,9,3,1.9,0,0.0,-1,0.0,0.0,0.0,0
2861554,1501038964093,,,,,,,,,0,2070,170,,,,,,,,,,,,,,,
2861564,1501038964103,3.2,,0.27,-0.04,0.83,1,-4,1,0,2040,170,,,,,,,,,,,,,,,
2861574,1501038964113,,,,,,,,,0,2025,170,,,,,,,,,,,,,,,
2861584,1501038964123,,,,,,,,,0,2010,170,,,,,,,,,,,,,,,
2861594,1501038964133,,,,,,,,,0,1920,170,,,,,,,,,,,,,,,
2861604,1501038964143,3.19,,0.28,-0.04,0.79,0,-6,1,0,2130,170,,,,,,,,,,,,,,,
2861614,1501038964153,,,,,,,,,0,2190,170,,,,,,,,,,,,,,,
2861624,1501038964163,,,,,,,,,0,2160,170,,,,,,,,,,,,,,,
2861634,1501038964173,,,,,,,,,0,2130,170,,,,,,,,,,,,,,,
2861644,1501038964183,3.15,,0.29,-0.04,0.81,0,-4,2,0,2100,170,36.113663,-115.145638,2.71,6.097,2042.7,9,3,1.9,0,0.0,-1,0.0,0.0,0.0,0
2861654,1501038964195,,,,,,,,,0,2040,170,,,,,,,,,,,,,,,
2861664,1501038964205,,,,,,,,,0,2310,300,,,,,,,,,,,,,,,
2861674,1501038964215,,,,,,,,,0,2280,300,,,,,,,,,,,,,,,
2861684,1501038964225,3.2,,0.29,-0.04,0.74,0,-8,2,0,2235,300,,,,,,,,,,,,,,,
2861694,1501038964235,,,,,,,,,0,2220,300,,,,,,,,,,,,,,,
2861704,1501038964245,,,,,,,,,0,2130,300,,,,,,,,,,,,,,,
2861714,1501038964255,,,,,,,,,0,2325,300,,,,,,,,,,,,,,,
2861724,1501038964265,3.15,,0.26,-0.07,0.87,0,-5,3,0,2370,300,,,,,,,,,,,,,,,
2861734,1501038964275,,,,,,,,,0,2310,300,,,,,,,,,,,,,,,
2861744,1501038964285,,,,,,,,,0,2310,300,36.113663,-115.145638,3.76,6.097,2042.8,9,3,1.9,0,0.0,-1,0.0,0.0,0.0,0
2861754,1501038964295,,,,,,,,,0,2205,300,,,,,,,,,,,,,,,
2861764,1501038964305,3.15,,0.36,-0.08,0.79,-1,-8,4,0,2385,520,,,,,,,,,,,,,,,
2861774,1501038964315,,,,,,,,,0,2430,520,,,,,,,,,,,,,,,
2861784,1501038964325,,,,,,,,,0,2385,520,,,,,,,,,,,,,,,
2861794,1501038964335,,,,,,,,,0,2385,520,,,,,,,,,,,,,,,
2861804,1501038964345,3.21,,0.35,-0.06,0.89,-0,-2,5,0,2280,520,,,,,,,,,,,,,,,
2861814,1501038964355,,,,,,,,,0,2445,520,,,,,,,,,,,,,,,
2861824,1501038964365,,,,,,,,,0,2505,520,,,,,,,,,,,,,,,
2861834,1501038964375,,,,,,,,,0,2490,520,,,,,,,,,,,,,,,
2861844,1501038964385,3.15,,0.4,-0.06,0.95,-2,-6,5,0,2430,520,36.113663,-115.145638,4.49,6.098,2043.1,9,3,1.9,0,0.0,-1,0.0,0.0,0.0,0
2861854,1501038964395,,,,,,,,,0,2355,520,,,,,,,,,,,,,,,
2861864,1501038964395,,,,,,,,,0,2595,1090,,,,,,,,,,,,,,,
2861874,1501038964405,,,,,,,,,0,2565,1090,,,,,,,,,,,,,,,
2861884,1501038964415,3.16,,0.41,-0.04,0.83,-3,-9,4,0,2535,1090,,,,,,,,,,,,,,,
2861894,1501038964425,,,,,,,,,0,2490,1090,,,,,,,,,,,,,,,
2861904,1501038964435,,,,,,,,,0,2430,1090,,,,,,,,,,,,,,,
2861914,1501038964445,,,,,,,,,0,2655,1090,,,,,,,,,,,,,,,
2861924,1501038964455,3.23,,0.3,-0.04,0.92,-2,-3,3,0,2595,1090,,,,,,,,,,,,,,,
2861934,1501038964465,,,,,,,,,0,2565,1090,,,,,,,,,,,,,,,
2861944,1501038964475,,,,,,,,,0,2550,110,36.113663,-115.145653,4.95,6.098,2043.3,9,3,1.9,0,0.0,-1,0.0,0.0,0.0,0
2861954,1501038964495,,,,,,,,,0,2610,110,,,,,,,,,,,,,,,
2861964,1501038964505,3.24,,0.38,-0.09,1.03,-2,-5,3,0,2670,110,,,,,,,,,,,,,,,
2861974,1501038964515,,,,,,,,,0,2625,110,,,,,,,,,,,,,,,
2861984,1501038964525,,,,,,,,,0,2625,110,,,,,,,,,,,,,,,
2861994,1501038964535,,,,,,,,,0,2535,110,,,,,,,,,,,,,,,
2862004,1501038964545,3.24,,0.36,-0.09,0.76,-3,-9,3,0,2745,110,,,,,,,,,,,,,,,
2862014,1501038964555,,,,,,,,,0,2685,110,,,,,,,,,,,,,,,
2862024,1501038964565,,,,,,,,,0,2670,120,,,,,,,,,,,,,,,
2862034,1501038964575,,,,,,,,,0,2625,120,,,,,,,,,,,,,,,
2862044,1501038964585,3.17,4.48,0.33,-0.04,0.7,-3,-7,4,0,2700,120,36.113663,-115.145653,6.1,6.098,2043.7,9,3,1.9,0,0.0,-1,0.0,0.0,0.0,0
2862054,1501038964592,,,,,,,,,0,2745,120,,,,,,,,,,,,,,,
2862064,1501038964602,,,,,,,,,0,2715,120,,,,,,,,,,,,,,,
2862074,1501038964612,,,,,,,,,0,2700,120,,,,,,,,,,,,,,,
2862084,1501038964622,3.21,,0.37,-0.1,0.81,-3,-3,2,0,2610,120,,,,,,,,,,,,,,,
2862094,1501038964632,,,,,,,,,0,2805,120,,,,,,,,,,,,,,,
2862104,1501038964642,,,,,,,,,0,2745,120,,,,,,,,,,,,,,,
2862114,1501038964652,,,,,,,,,0,2715,120,,,,,,,,,,,,,,,
2862124,1501038964662,3.15,,0.37,-0.16,1.03,-2,-1,1,0,2640,120,,,,,,,,,,,,,,,
2862134,1501038964672,,,,,,,,,0,2760,120,,,,,,,,,,,,,,,
2862144,1501038964682,,,,,,,,,0,2790,120,36.113663,-115.145653,6.8,6.098,2043.8,9,3,1.9,0,0.0,-1,0.0,0.0,0.0,0
2862154,1501038964694,,,,,,,,,0,2790,120,,,,,,,,,,,,,,,
2862164,1501038964704,3.15,,0.39,-0.12,1.01,-3,-2,2,0,2700,120,,,,,,,,,,,,,,,
2862174,1501038964714,,,,,,,,,0,2805,130,,,,,,,,,,,,,,,
2862184,1501038964724,,,,,,,,,0,2805,130,,,,,,,,,,,,,,,
2862194,1501038964734,,,,,,,,,0,2790,130,,,,,,,,,,,,,,,
2862204,1501038964744,3.22,,0.38,-0.09,0.89,-5,-6,7,0,2745,130,,,,,,,,,,,,,,,
2862214,1501038964754,,,,,,,,,0,2700,130,,,,,,,,,,,,,,,
2862224,1501038964764,,,,,,,,,0,2835,130,,,,,,,,,,,,,,,
2862234,1501038964774,,,,,,,,,0,2820,130,,,,,,,,,,,,,,,
2862244,1501038964784,3.21,,0.34,-0.06,0.82,-4,-11,6,0,2760,140,36.113663,-115.145653,7.48,6.098,2044.1,9,3,1.9,0,0.0,-1,0.0,0.0,0.0,0
2862254,1501038964794,,,,,,,,,0,2700,140,,,,,,,,,,,,,,,
2862264,1501038964804,,,,,,,,,0,2850,140,,,,,,,,,,,,,,,
2862274,1501038964814,,,,,,,,,0,2850,140,,,,,,,,,,,,,,,
2862284,1501038964824,3.2,,0.36,-0.05,0.73,-5,-11,7,0,2820,140,,,,,,,,,,,,,,,
2862294,1501038964834,,,,,,,,,0,2760,140,,,,,,,,,,,,,,,
2862304,1501038964844,,,,,,,,,0,2820,150,,,,,,,,,,,,,,,
2862314,1501038964854,,,,,,,,,0,2865,150,,,,,,,,,,,,,,,
2862324,1501038964864,3.17,,0.38,-0.04,0.77,-4,-7,9,0,2805,150,,,,,,,,,,,,,,,
2862334,1501038964874,,,,,,,,,0,2760,150,,,,,,,,,,,,,,,
2862344,1501038964884,,,,,,,,,0,2820,150,36.113663,-115.145668,8.12,6.098,2044.5,9,3,1.9,0,0.0,-1,0.0,0.0,0.0,0
2862354,1501038964892,,,,,,,,,0,2895,150,,,,,,,,,,,,,,,
2862364,1501038964902,3.13,,0.36,-0.01,0.89,-3,-1,9,0,2835,150,,,,,,,,,,,,,,,
2862374,1501038964912,,,,,,,,,0,2790,160,,,,,,,,,,,,,,,
2862384,1501038964922,,,,,,,,,0,2700,160,,,,,,,,,,,,,,,
2862394,1501038964932,,,,,,,,,0,2865,160,,,,,,,,,,,,,,,
2862404,1501038964942,3.2,,0.34,-0.03,1.1,-2,2,4,0,2850,160,,,,,,,,,,,,,,,
2862414,1501038964952,,,,,,,,,0,2775,160,,,,,,,,,,,,,,,
2862424,1501038964962,,,,,,,,,0,2715,160,,,,,,,,,,,,,,,
2862434,1501038964972,,,,,,,,,0,2835,160,,,,,,,,,,,,,,,
2862444,1501038964982,3.15,,0.33,-0.07,1.26,-3,4,2,0,2850,160,36.113663,-115.145668,8.75,6.099,2044.5,9,3,1.9,0,0.0,-1,0.0,0.0,0.0,0
2862454,1501038964992,,,,,,,,,0,2820,160,,,,,,,,,,,,,,,
2862464,1501038964996,,,,,,,,,0,2760,160,,,,,,,,,,,,,,,
2862474,1501038965006,,,,,,,,,0,2835,160,,,,,,,,,,,,,,,
2862484,1501038965016,3.21,,0.35,-0.05,1.19,-3,1,3,0,2865,170,,,,,,,,,,,,,,,
2862494,1501038965026,,,,,,,,,0,2805,170,,,,,,,,,,,,,,,
2862504,1501038965036,,,,,,,,,0,2760,170,,,,,,,,,,,,,,,
2862514,1501038965046,,,,,,,,,0,2700,170,,,,,,,,,,,,,,,
2862524,1501038965056,3.21,,0.35,-0.07,0.96,-4,-3,4,0,2880,170,,,,,,,,,,,,,,,
2862534,1501038965066,,,,,,,,,0,2865,170,,,,,,,,,,,,,,,
2862544,1501038965076,,,,,,,,,0,2775,170,36.113663,-115.145676,9.59,6.099,2044.8,9,3,1.9,0,0.0,-1,0.0,0.0,0.0,0
2862554,1501038965092,,,,,,,,,0,2730,170,,,,,,,,,,,,,,,
2862564,1501038965102,3.15,,0.31,-0.08,0.69,-4,-6,4,0,2880,170,,,,,,,,,,,,,,,
2862574,1501038965112,,,,,,,,,0,2865,170,,,,,,,,,,,,,,,
2862584,1501038965122,,,,,,,,,0,2790,170,,,,,,,,,,,,,,,
2862594,1501038965132,,,,,,,,,0,2745,170,,,,,,,,,,,,,,,
2862604,1501038965142,3.14,,0.33,-0.05,0.56,-5,-9,4,0,2865,180,,,,,,,,,,,,,,,
2862614,1501038965152,,,,,,,,,0,2895,180,,,,,,,,,,,,,,,
2862624,1501038965162,,,,,,,,,0,2835,180,,,,,,,,,,,,,,,
2862634,1501038965172,,,,,,,,,0,2805,180,,,,,,,,,,,,,,,
2862644,1501038965182,3.07,,0.33,-0.12,0.57,-5,-8,3,0,2865,180,36.113663,-115.145676,10.32,6.099,2044.8,9,3,1.9,0,0.0,-1,0.0,0.0,0.0,0
2862654,1501038965194,,,,,,,,,0,2880,180,,,,,,,,,,,,,,,
2862664,1501038965204,,,,,,,,,0,2850,180,,,,,,,,,,,,,,,
2862674,1501038965214,,,,,,,,,0,2790,180,,,,,,,,,,,,,,,
2862684,1501038965224,3.17,,0.32,-0.03,0.69,-3,-4,4,0,2880,180,,,,,,,,,,,,,,,
2862694,1501038965234,,,,,,,,,0,2880,180,,,,,,,,,,,,,,,
2862704,1501038965244,,,,,,,,,0,2895,190,,,,,,,,,,,,,,,
2862714,1501038965254,,,,,,,,,0,2820,190,,,,,,,,,,,,,,,
2862724,1501038965264,3.2,,0.28,-0.02,0.87,-1,1,5,0,2745,190,,,,,,,,,,,,,,,
2862734,1501038965274,,,,,,,,,0,2910,190,,,,,,,,,,,,,,,
2862744,1501038965284,,,,,,,,,0,2880,190,36.113663,-115.145676,10.77,6.1,2044.9,9,3,1.9,0,0.0,-1,0.0,0.0,0.0,0
2862754,1501038965294,,,,,,,,,0,2805,190,,,,,,,,,,,,,,,
2862764,1501038965304,3.18,,0.31,-0.03,1.09,-1,4,3,0,2745,190,,,,,,,,,,,,,,,
2862774,1501038965314,,,,,,,,,0,2925,190,,,,,,,,,,,,,,,
2862784,1501038965324,,,,,,,,,0,2895,190,,,,,,,,,,,,,,,
2862794,1501038965334,,,,,,,,,0,2835,190,,,,,,,,,,,,,,,
2862804,1501038965344,3.16,,0.29,-0.07,1.16,-2,8,2,0,2790,190,,,,,,,,,,,,,,,
2862814,1501038965354,,,,,,,,,0,2865,190,,,,,,,,,,,,,,,
2862824,1501038965364,,,,,,,,,0,2895,190,,,,,,,,,,,,,,,
2862834,1501038965374,,,,,,,,,0,2865,190,,,,,,,,,,,,,,,
2862844,1501038965384,3.13,,0.31,-0.11,1.1,-3,4,1,0,2790,190,36.113663,-115.145691,11.5,6.1,2044.8,9,3,1.9,0,0.0,-1,0.0,0.0,0.0,0
2862854,1501038965394,,,,,,,,,0,2865,200,,,,,,,,,,,,,,,
2862864,1501038965404,,,,,,,,,0,2895,200,,,,,,,,,,,,,,,
2862874,1501038965414,,,,,,,,,0,2850,200,,,,,,,,,,,,,,,
2862884,1501038965424,3.17,,0.32,-0.1,0.91,-3,1,-1,0,2790,200,,,,,,,,,,,,,,,
2862894,1501038965434,,,,,,,,,0,2865,200,,,,,,,,,,,,,,,
2862904,1501038965444,,,,,,,,,0,2895,200,,,,,,,,,,,,,,,
2862914,1501038965454,,,,,,,,,0,2880,200,,,,,,,,,,,,,,,
2862924,1501038965464,3.2,,0.32,-0.08,0.61,-3,-4,2,0,2820,200,,,,,,,,,,,,,,,
2862934,1501038965474,,,,,,,,,0,2730,200,,,,,,,,,,,,,,,
2862944,1501038965484,,,,,,,,,0,2910,200,36.113663,-115.145691,12.0,6.1,2044.8,9,3,1.9,0,0.0,-1,0.0,0.0,0.0,0
2862954,1501038965493,,,,,,,,,0,2865,210,,,,,,,,,,,,,,,
2862964,1501038965503,3.21,,0.37,-0.13,0.33,-3,-9,2,0,2820,210,,,,,,,,,,,,,,,
2862974,1501038965513,,,,,,,,,0,2730,210,,,,,,,,,,,,,,,
2862984,1501038965523,,,,,,,,,0,2940,210,,,,,,,,,,,,,,,
2862994,1501038965533,,,,,,,,,0,2880,210,,,,,,,,,,,,,,,
2863004,1501038965543,3.16,,0.4,-0.16,0.23,-5,-12,3,0,2820,210,,,,,,,,,,,,,,,
2863014,1501038965553,,,,,,,,,0,2790,210,,,,,,,,,,,,,,,
2863024,1501038965563,,,,,,,,,0,2895,210,,,,,,,,,,,,,,,
2863034,1501038965573,,,,,,,,,0,2880,210,,,,,,,,,,,,,,,
2863044,1501038965583,3.13,4.49,0.39,-0.11,0.33,-4,-11,6,0,2850,210,36.113663,-115.145706,12.59,6.101,2044.7,9,3,1.9,0,0.0,-1,0.0,0.0,0.0,0
2863054,1501038965593,,,,,,,,,0,2805,210,,,,,,,,,,,,,,,
2863064,1501038965603,,,,,,,,,0,2865,210,,,,,,,,,,,,,,,
2863074,1501038965613,,,,,,,,,0,2880,210,,,,,,,,,,,,,,,
2863084,1501038965623,3.18,,0.32,-0.04,0.45,-2,-7,7,0,2850,210,,,,,,,,,,,,,,,
2863094,1501038965633,,,,,,,,,0,2790,210,,,,,,,,,,,,,,,
2863104,1501038965643,,,,,,,,,0,2730,210,,,,,,,,,,,,,,,
2863114,1501038965653,,,,,,,,,0,2895,210,,,,,,,,,,,,,,,
2863124,1501038965663,3.13,,0.32,0.0,0.74,-0,-2,4,0,2865,210,,,,,,,,,,,,,,,
2863134,1501038965673,,,,,,,,,0,2820,220,,,,,,,,,,,,,,,
2863144,1501038965683,,,,,,,,,0,2715,220,36.113663,-115.145706,13.04,6.101,2044.7,9,3,1.9,0,0.0,-1,0.0,0.0,0.0,0
2863154,1501038965693,,,,,,,,,0,2895,220,,,,,,,,,,,,,,,
2863164,1501038965703,3.12,,0.24,-0.02,0.98,-0,5,4,0,2880,220,,,,,,,,,,,,,,,
2863174,1501038965713,,,,,,,,,0,2805,220,,,,,,,,,,,,,,,
2863184,1501038965723,,,,,,,,,0,2730,220,,,,,,,,,,,,,,,
2863194,1501038965733,,,,,,,,,0,2910,220,,,,,,,,,,,,,,,
2863204,1501038965743,3.2,,0.25,-0.09,1.04,-1,5,5,0,2895,220,,,,,,,,,,,,,,,
2863214,1501038965753,,,,,,,,,0,2835,230,,,,,,,,,,,,,,,
2863224,1501038965763,,,,,,,,,0,2790,230,,,,,,,,,,,,,,,
2863234,1501038965773,,,,,,,,,0,2865,230,,,,,,,,,,,,,,,
2863244,1501038965783,3.24,,0.29,-0.1,0.87,-2,2,5,0,2880,230,36.113663,-115.145714,13.64,6.101,2044.8,9,3,1.9,0,0.0,-1,0.0,0.0,0.0,0
2863254,1501038965793,,,,,,,,,0,2865,230,,,,,,,,,,,,,,,
2863264,1501038965803,,,,,,,,,0,2790,230,,,,,,,,,,,,,,,
2863274,1501038965813,,,,,,,,,0,2865,230,,,,,,,,,,,,,,,
2863284,1501038965823,3.19,,0.31,-0.1,0.74,-1,-2,4,0,2865,230,,,,,,,,,,,,,,,
2863294,1501038965833,,,,,,,,,0,2865,230,,,,,,,,,,,,,,,
2863304,1501038965843,,,,,,,,,0,2775,230,,,,,,,,,,,,,,,
2863314,1501038965853,,,,,,,,,0,2715,230,,,,,,,,,,,,,,,
2863324,1501038965863,3.2,,0.28,-0.07,0.67,-1,-5,4,0,2880,230,,,,,,,,,,,,,,,
2863334,1501038965873,,,,,,,,,0,2850,230,,,,,,,,,,,,,,,
2863344,1501038965883,,,,,,,,,0,2805,230,36.113663,-115.145729,14.07,6.102,2044.8,9,3,1.9,0,0.0,-1,0.0,0.0,0.0,0
2863354,1501038965893,,,,,,,,,0,2715,230,,,,,,,,,,,,,,,
2863364,1501038965903,3.19,,0.3,-0.08,0.48,-2,-11,5,0,2895,230,,,,,,,,,,,,,,,
2863374,1501038965913,,,,,,,,,0,2850,230,,,,,,,,,,,,,,,
2863384,1501038965923,,,,,,,,,0,2820,240,,,,,,,,,,,,,,,
2863394,1501038965933,,,,,,,,,0,2775,240,,,,,,,,,,,,,,,
2863404,1501038965943,3.18,,0.33,-0.13,0.42,-2,-13,4,0,2835,240,,,,,,,,,,,,,,,
2863414,1501038965953,,,,,,,,,0,2865,240,,,,,,,,,,,,,,,
2863424,1501038965963,,,,,,,,,0,2805,240,,,,,,,,,,,,,,,
2863434,1501038965973,,,,,,,,,0,2760,240,,,,,,,,,,,,,,,
2863444,1501038965983,3.21,,0.32,-0.08,0.55,-2,-10,5,0,2835,240,36.113663,-115.145729,14.37,6.102,2045.2,9,3,1.9,0,0.0,-1,0.0,0.0,0.0,0
2863454,1501038965993,,,,,,,,,0,2865,240,,,,,,,,,,,,,,,
2863464,1501038965997,,,,,,,,,0,2820,250,,,,,,,,,,,,,,,
2863474,1501038966007,,,,,,,,,0,2775,250,,,,,,,,,,,,,,,
2863484,1501038966017,3.22,,0.24,-0.03,0.75,-1,-4,5,0,2700,250,,,,,,,,,,,,,,,
2863494,1501038966027,,,,,,,,,0,2880,250,,,,,,,,,,,,,,,
2863504,1501038966037,,,,,,,,,0,2835,250,,,,,,,,,,,,,,,
2863514,1501038966047,,,,,,,,,0,2775,250,,,,,,,,,,,,,,,
2863524,1501038966057,3.24,,0.27,-0.04,0.99,1,-3,2,0,2700,250,,,,,,,,,,,,,,,
2863534,1501038966067,,,,,,,,,0,2865,250,,,,,,,,,,,,,,,
2863544,1501038966077,,,,,,,,,0,2835,250,36.113663,-115.145744,14.84,6.102,2045.2,9,3,1.9,0,0.0,-1,0.0,0.0,0.0,0
2863554,1501038966093,,,,,,,,,0,2820,250,,,,,,,,,,,,,,,
2863564,1501038966103,3.21,,0.24,-0.03,1.13,0,1,2,0,2760,250,,,,,,,,,,,,,,,
2863574,1501038966113,,,,,,,,,0,2820,250,,,,,,,,,,,,,,,
2863584,1501038966123,,,,,,,,,0,2865,250,,,,,,,,,,,,,,,
2863594,1501038966133,,,,,,,,,0,2790,250,,,,,,,,,,,,,,,
2863604,1501038966143,3.24,,0.25,0.0,1.17,-1,-2,2,0,2745,250,,,,,,,,,,,,,,,
2863614,1501038966153,,,,,,,,,0,2805,250,,,,,,,,,,,,,,,
2863624,1501038966163,,,,,,,,,0,2865,250,,,,,,,,,,,,,,,
2863634,1501038966173,,,,,,,,,0,2805,250,,,,,,,,,,,,,,,
2863644,1501038966183,3.26,,0.23,-0.01,0.9,-0,-6,3,0,2775,250,36.113663,-115.145744,15.41,6.103,2045.1,9,3,1.9,0,0.0,-1,0.0,0.0,0.0,0
2863654,1501038966193,,,,,,,,,0,2670,250,,,,,,,,,,,,,,,
2863664,1501038966203,,,,,,,,,0,2850,260,,,,,,,,,,,,,,,
2863674,1501038966213,,,,,,,,,0,2805,260,,,,,,,,,,,,,,,
2863684,1501038966223,3.2,,0.3,-0.07,0.66,-1,-12,3,0,2745,260,,,,,,,,,,,,,,,
2863694,1501038966233,,,,,,,,,0,2730,260,,,,,,,,,,,,,,,
2863704,1501038966243,,,,,,,,,0,2820,260,,,,,,,,,,,,,,,
2863714,1501038966253,,,,,,,,,0,2850,260,,,,,,,,,,,,,,,
2863724,1501038966263,3.19,,0.33,-0.05,0.53,-3,-13,5,0,2790,260,,,,,,,,,,,,,,,
2863734,1501038966273,,,,,,,,,0,2730,270,,,,,,,,,,,,,,,
2863744,1501038966283,,,,,,,,,0,2820,270,36.113663,-115.145752,15.92,6.103,2045.1,9,3,1.9,0,0.0,-1,0.0,0.0,0.0,0
2863754,1501038966293,,,,,,,,,0,2835,270,,,,,,,,,,,,,,,
2863764,1501038966303,3.16,,0.24,-0.06,0.52,0,-8,5,0,2820,270,,,,,,,,,,,,,,,
2863774,1501038966313,,,,,,,,,0,2775,260,,,,,,,,,,,,,,,
2863784,1501038966323,,,,,,,,,0,2685,260,,,,,,,,,,,,,,,
2863794,1501038966333,,,,,,,,,0,2850,260,,,,,,,,,,,,,,,
2863804,1501038966343,3.16,,0.21,-0.01,0.8,1,-3,2,0,2805,260,,,,,,,,,,,,,,,
2863814,1501038966353,,,,,,,,,0,2760,260,,,,,,,,,,,,,,,
2863824,1501038966363,,,,,,,,,0,2685,260,,,,,,,,,,,,,,,
2863834,1501038966373,,,,,,,,,0,2820,260,,,,,,,,,,,,,,,
2863844,1501038966383,3.2,,0.2,-0.05,1.03,0,1,3,0,2835,260,36.113663,-115.145767,15.71,6.104,2045.2,9,3,1.9,0,0.0,-1,0.0,0.0,0.0,0
2863854,1501038966393,,,,,,,,,0,2805,260,,,,,,,,,,,,,,,
2863864,1501038966403,,,,,,,,,0,2745,260,,,,,,,,,,,,,,,
2863874,1501038966413,,,,,,,,,0,2835,260,,,,,,,,,,,,,,,
2863884,1501038966423,3.23,,0.25,-0.03,1.04,-0,0,4,0,2865,270,,,,,,,,,,,,,,,
2863894,1501038966433,,,,,,,,,0,2805,270,,,,,,,,,,,,,,,
2863904,1501038966443,,,,,,,,,0,2745,270,,,,,,,,,,,,,,,
2863914,1501038966453,,,,,,,,,0,2685,270,,,,,,,,,,,,,,,
2863924,1501038966463,3.22,,0.23,-0.02,0.87,0,-4,3,0,2850,270,,,,,,,,,,,,,,,
2863934,1501038966473,,,,,,,,,0,2820,270,,,,,,,,,,,,,,,
2863944,1501038966483,,,,,,,,,0,2775,270,36.113663,-115.145767,16.19,6.104,2045.2,9,3,1.9,0,0.0,-1,0.0,0.0,0.0,0
2863954,1501038966493,,,,,,,,,0,2685,280,,,,,,,,,,,,,,,
2863964,1501038966503,3.18,,0.23,0.0,0.62,-1,-9,4,0,2880,280,,,,,,,,,,,,,,,
2863974,1501038966513,,,,,,,,,0,2820,280,,,,,,,,,,,,,,,
2863984,1501038966523,,,,,,,,,0,2775,280,,,,,,,,,,,,,,,
2863994,1501038966533,,,,,,,,,0,2745,270,,,,,,,,,,,,,,,
2864004,1501038966543,3.16,,0.28,-0.01,0.52,-1,-12,4,0,2820,270,,,,,,,,,,,,,,,
2864014,1501038966553,,,,,,,,,0,2850,270,,,,,,,,,,,,,,,
2864024,1501038966563,,,,,,,,,0,2805,270,,,,,,,,,,,,,,,
2864034,1501038966573,,,,,,,,,0,2745,270,,,,,,,,,,,,,,,
2864044,1501038966583,3.21,4.49,0.24,-0.01,0.53,-0,-8,4,0,2835,270,36.113663,-115.145782,16.75,6.105,2045.2,9,3,1.9,0,0.0,-1,0.0,0.0,0.0,0
2864054,1501038966592,,,,,,,,,0,2835,270,,,,,,,,,,,,,,,
2864064,1501038966602,,,,,,,,,0,2835,280,,,,,,,,,,,,,,,
2864074,1501038966612,,,,,,,,,0,2760,280,,,,,,,,,,,,,,,
2864084,1501038966622,3.22,,0.18,0.02,0.76,0,-3,3,0,2685,280,,,,,,,,,,,,,,,
2864094,1501038966632,,,,,,,,,0,2880,280,,,,,,,,,,,,,,,
2864104,1501038966642,,,,,,,,,0,2835,280,,,,,,,,,,,,,,,
2864114,1501038966652,,,,,,,,,0,2790,280,,,,,,,,,,,,,,,
2864124,1501038966662,3.17,,0.18,0.0,1.0,1,-0,1,0,2700,280,,,,,,,,,,,,,,,
2864134,1501038966672,,,,,,,,,0,2895,280,,,,,,,,,,,,,,,
2864144,1501038966682,,,,,,,,,0,2850,280,36.113663,-115.14579,17.3,6.105,2045.1,9,3,1.9,0,0.0,-1,0.0,0.0,0.0,0
2864154,1501038966694,,,,,,,,,0,2820,280,,,,,,,,,,,,,,,
2864164,1501038966704,3.22,,0.2,0.04,1.11,-2,4,7,0,2760,290,,,,,,,,,,,,,,,
2864174,1501038966714,,,,,,,,,0,2850,290,,,,,,,,,,,,,,,
2864184,1501038966724,,,,,,,,,0,2865,290,,,,,,,,,,,,,,,
2864194,1501038966734,,,,,,,,,0,2820,290,,,,,,,,,,,,,,,
2864204,1501038966744,3.24,,0.24,0.03,1.07,-2,2,6,0,2760,290,,,,,,,,,,,,,,,
2864214,1501038966754,,,,,,,,,0,2850,290,,,,,,,,,,,,,,,
2864224,1501038966764,,,,,,,,,0,2865,290,,,,,,,,,,,,,,,
2864234,1501038966774,,,,,,,,,0,2835,280,,,,,,,,,,,,,,,
2864244,1501038966784,3.23,,0.18,0.03,0.89,-1,-3,5,0,2790,280,36.113659,-115.14579,17.66,6.106,2045.2,9,3,1.9,0,0.0,-1,0.0,0.0,0.0,0
2864254,1501038966794,,,,,,,,,0,2685,280,,,,,,,,,,,,,,,
2864264,1501038966804,,,,,,,,,0,2880,280,,,,,,,,,,,,,,,
2864274,1501038966814,,,,,,,,,0,2835,290,,,,,,,,,,,,,,,
2864284,1501038966824,3.22,,0.24,-0.04,0.59,-2,-9,4,0,2790,290,,,,,,,,,,,,,,,
2864294,1501038966834,,,,,,,,,0,2700,290,,,,,,,,,,,,,,,
2864304,1501038966844,,,,,,,,,0,2835,290,,,,,,,,,,,,,,,
2864314,1501038966854,,,,,,,,,0,2865,290,,,,,,,,,,,,,,,
2864324,1501038966864,3.23,,0.28,-0.09,0.39,-2,-13,4,0,2820,290,,,,,,,,,,,,,,,
2864334,1501038966874,,,,,,,,,0,2760,290,,,,,,,,,,,,,,,
2864344,1501038966884,,,,,,,,,0,2850,290,36.113659,-115.145805,17.69,6.106,2045.4,9,3,1.9,0,0.0,-1,0.0,0.0,0.0,0
2864354,1501038966894,,,,,,,,,0,2865,290,,,,,,,,,,,,,,,
2864364,1501038966896,3.19,,0.22,-0.09,0.49,-1,-12,3,0,2835,290,,,,,,,,,,,,,,,
2864374,1501038966906,,,,,,,,,0,2775,300,,,,,,,,,,,,,,,
2864384,1501038966916,,,,,,,,,0,2880,300,,,,,,,,,,,,,,,
2864394,1501038966926,,,,,,,,,0,2895,300,,,,,,,,,,,,,,,
2864404,1501038966936,3.16,,0.18,-0.11,0.68,0,-6,2,0,2850,290,,,,,,,,,,,,,,,
2864414,1501038966946,,,,,,,,,0,2805,290,,,,,,,,,,,,,,,
2864424,1501038966956,,,,,,,,,0,2730,290,,,,,,,,,,,,,,,
2864434,1501038966966,,,,,,,,,0,2895,290,,,,,,,,,,,,,,,
2864444,1501038966976,3.18,,0.14,-0.03,0.93,2,-2,-1,0,2850,290,36.113659,-115.145821,18.39,6.107,2045.4,9,3,1.9,0,0.0,-1,0.0,0.0,0.0,0
2864454,1501038966986,,,,,,,,,0,2820,290,,,,,,,,,,,,,,,
2864464,1501038966996,,,,,,,,,0,2730,290,,,,,,,,,,,,,,,
2864474,1501038967006,,,,,,,,,0,2910,300,,,,,,,,,,,,,,,
2864484,1501038967016,3.2,,0.15,-0.07,1.03,0,2,3,0,2910,300,,,,,,,,,,,,,,,
2864494,1501038967026,,,,,,,,,0,2835,300,,,,,,,,,,,,,,,
2864504,1501038967036,,,,,,,,,0,2790,300,,,,,,,,,,,,,,,
2864514,1501038967046,,,,,,,,,0,2850,300,,,,,,,,,,,,,,,
2864524,1501038967056,3.22,,0.22,-0.11,1.01,-1,2,4,0,2895,300,,,,,,,,,,,,,,,
2864534,1501038967066,,,,,,,,,0,2865,300,,,,,,,,,,,,,,,
2864544,1501038967076,,,,,,,,,0,2790,300,36.113659,-115.145821,18.77,6.107,2045.4,9,3,1.9,0,0.0,-1,0.0,0.0,0.0,0
2864554,1501038967096,,,,,,,,,0,2895,300,,,,,,,,,,,,,,,
2864564,1501038967106,3.15,,0.2,-0.09,0.92,-1,-1,3,0,2910,300,,,,,,,,,,,,,,,
2864574,1501038967116,,,,,,,,,0,2880,300,,,,,,,,,,,,,,,
2864584,1501038967126,,,,,,,,,0,2850,300,,,,,,,,,,,,,,,
2864594,1501038967136,,,,,,,,,0,2760,300,,,,,,,,,,,,,,,
2864604,1501038967146,3.21,,0.16,-0.12,0.7,-1,-6,2,0,2940,300,,,,,,,,,,,,,,,
2864614,1501038967156,,,,,,,,,0,2895,300,,,,,,,,,,,,,,,
2864624,1501038967166,,,,,,,,,0,2835,300,,,,,,,,,,,,,,,
2864634,1501038967176,,,,,,,,,0,2760,300,,,,,,,,,,,,,,,
2864644,1501038967186,3.22,,0.16,-0.09,0.52,-1,-10,2,0,2925,300,36.113659,-115.145828,18.69,6.108,2045.6,9,3,1.1,0,0.0,-1,0.0,0.0,0.0,0
2864654,1501038967196,,,,,,,,,0,2895,300,,,,,,,,,,,,,,,
2864664,1501038967206,,,,,,,,,0,2850,300,,,,,,,,,,,,,,,
2864674,1501038967216,,,,,,,,,0,2745,300,,,,,,,,,,,,,,,
2864684,1501038967226,3.15,,0.15,-0.07,0.32,-2,-13,4,0,2925,300,,,,,,,,,,,,,,,
2864694,1501038967236,,,,,,,,,0,2895,300,,,,,,,,,,,,,,,
2864704,1501038967246,,,,,,,,,0,2850,300,,,,,,,,,,,,,,,
2864714,1501038967256,,,,,,,,,0,2835,300,,,,,,,,,,,,,,,
2864724,1501038967266,3.22,,0.18,0.01,0.29,-3,-14,7,0,2910,300,,,,,,,,,,,,,,,
2864734,1501038967276,,,,,,,,,0,2940,310,,,,,,,,,,,,,,,
2864744,1501038967286,,,,,,,,,0,2895,310,36.113659,-115.145844,18.93,6.108,2045.7,9,3,1.1,0,0.0,-1,0.0,0.0,0.0,0
2864754,1501038967296,,,,,,,,,0,2820,310,,,,,,,,,,,,,,,
2864764,1501038967306,3.22,,0.18,0.05,0.38,-3,-15,7,0,2895,310,,,,,,,,,,,,,,,
2864774,1501038967316,,,,,,,,,0,2925,310,,,,,,,,,,,,,,,
2864784,1501038967326,,,,,,,,,0,2895,310,,,,,,,,,,,,,,,
2864794,1501038967336,,,,,,,,,0,2835,310,,,,,,,,,,,,,,,
2864804,1501038967346,3.2,,0.18,0.09,0.51,-1,-11,5,0,2925,310,,,,,,,,,,,,,,,
2864814,1501038967356,,,,,,,,,0,2925,310,,,,,,,,,,,,,,,
2864824,1501038967366,,,,,,,,,0,2910,310,,,,,,,,,,,,,,,
2864834,1501038967376,,,,,,,,,0,2850,310,,,,,,,,,,,,,,,
2864844,1501038967386,3.21,,0.14,0.08,0.73,0,-7,3,0,2790,310,36.113659,-115.145859,19.0,6.109,2045.9,9,3,1.1,0,0.0,-1,0.0,0.0,0.0,0
2864854,1501038967396,,,,,,,,,0,2970,310,,,,,,,,,,,,,,,
2864864,1501038967406,,,,,,,,,0,2925,310,,,,,,,,,,,,,,,
2864874,1501038967416,,,,,,,,,0,2865,310,,,,,,,,,,,,,,,
2864884,1501038967426,3.19,,0.13,0.12,0.95,1,0,0,0,2790,310,,,,,,,,,,,,,,,
2864894,1501038967436,,,,,,,,,0,2970,310,,,,,,,,,,,,,,,
2864904,1501038967446,,,,,,,,,0,2925,310,,,,,,,,,,,,,,,
2864914,1501038967456,,,,,,,,,0,2850,310,,,,,,,,,,,,,,,
2864924,1501038967466,3.23,,0.06,0.08,1.15,1,3,-1,0,2805,310,,,,,,,,,,,,,,,
2864934,1501038967476,,,,,,,,,0,2955,310,,,,,,,,,,,,,,,
2864944,1501038967486,,,,,,,,,0,2925,310,36.113659,-115.145859,19.63,6.109,2045.7,9,3,1.1,0,0.0,-1,0.0,0.0,0.0,0
2864954,1501038967496,,,,,,,,,0,2895,320,,,,,,,,,,,,,,,
2864964,1501038967506,3.22,,0.01,0.01,1.26,-0,9,3,0,2790,320,,,,,,,,,,,,,,,
2864974,1501038967516,,,,,,,,,0,2985,320,,,,,,,,,,,,,,,
2864984,1501038967526,,,,,,,,,0,2940,320,,,,,,,,,,,,,,,
2864994,1501038967536,,,,,,,,,0,2880,320,,,,,,,,,,,,,,,
2865004,1501038967546,3.22,,0.01,-0.01,1.32,-1,13,4,0,2835,320,,,,,,,,,,,,,,,
2865014,1501038967556,,,,,,,,,0,2940,310,,,,,,,,,,,,,,,
2865024,1501038967566,,,,,,,,,0,2940,310,,,,,,,,,,,,,,,
2865034,1501038967576,,,,,,,,,0,2925,310,,,,,,,,,,,,,,,
2865044,1501038967586,3.2,4.48,0.08,-0.01,1.33,-4,12,8,0,2850,320,36.113659,-115.145866,19.79,6.11,2045.8,9,3,1.1,0,0.0,-1,0.0,0.0,0.0,0
2865054,1501038967595,,,,,,,,,0,2925,320,,,,,,,,,,,,,,,
2865064,1501038967605,,,,,,,,,0,2955,320,,,,,,,,,,,,,,,
2865074,1501038967615,,,,,,,,,0,2910,320,,,,,,,,,,,,,,,
2865084,1501038967625,3.21,,0.13,-0.08,1.17,-4,6,6,0,2850,320,,,,,,,,,,,,,,,
2865094,1501038967635,,,,,,,,,0,2955,320,,,,,,,,,,,,,,,
2865104,1501038967645,,,,,,,,,0,2970,320,,,,,,,,,,,,,,,
2865114,1501038967655,,,,,,,,,0,2925,320,,,,,,,,,,,,,,,
2865124,1501038967665,3.24,,0.12,-0.06,1.11,-3,2,6,0,2880,320,,,,,,,,,,,,,,,
2865134,1501038967675,,,,,,,,,0,2940,330,,,,,,,,,,,,,,,
2865144,1501038967685,,,,,,,,,0,2970,330,36.113659,-115.145882,21.11,6.11,2045.9,9,3,1.1,0,0.0,-1,0.0,0.0,0.0,0
2865154,1501038967693,,,,,,,,,0,2925,330,,,,,,,,,,,,,,,
2865164,1501038967703,3.19,,0.13,-0.07,0.92,-3,-1,6,0,2865,320,,,,,,,,,,,,,,,
2865174,1501038967713,,,,,,,,,0,2955,320,,,,,,,,,,,,,,,
2865184,1501038967723,,,,,,,,,0,2970,320,,,,,,,,,,,,,,,
2865194,1501038967733,,,,,,,,,0,2940,330,,,,,,,,,,,,,,,
2865204,1501038967743,3.24,,0.12,-0.09,0.68,-3,-6,6,0,2895,330,,,,,,,,,,,,,,,
2865214,1501038967753,,,,,,,,,0,2820,330,,,,,,,,,,,,,,,
2865224,1501038967763,,,,,,,,,0,2985,330,,,,,,,,,,,,,,,
2865234,1501038967773,,,,,,,,,0,2940,320,,,,,,,,,,,,,,,
2865244,1501038967783,3.22,,0.12,-0.12,0.67,-4,-8,7,0,2880,320,36.113659,-115.145897,20.68,6.111,2046.1,9,3,1.1,0,0.0,-1,0.0,0.0,0.0,0
2865254,1501038967795,,,,,,,,,0,2820,320,,,,,,,,,,,,,,,
2865264,1501038967805,,,,,,,,,0,3000,320,,,,,,,,,,,,,,,
2865274,1501038967815,,,,,,,,,0,2970,320,,,,,,,,,,,,,,,
2865284,1501038967825,3.22,,0.16,-0.15,0.47,-4,-11,6,0,2925,320,,,,,,,,,,,,,,,
2865294,1501038967835,,,,,,,,,0,2835,330,,,,,,,,,,,,,,,
2865304,1501038967845,,,,,,,,,0,2985,330,,,,,,,,,,,,,,,
2865314,1501038967855,,,,,,,,,0,2985,330,,,,,,,,,,,,,,,
2865324,1501038967865,3.23,,0.16,-0.08,0.3,-4,-12,6,0,2895,340,,,,,,,,,,,,,,,
2865334,1501038967875,,,,,,,,,0,2865,340,,,,,,,,,,,,,,,
2865344,1501038967885,,,,,,,,,0,3000,340,36.113659,-115.145912,20.74,6.111,2046.1,9,3,1.1,0,0.0,-1,0.0,0.0,0.0,0
2865354,1501038967895,,,,,,,,,0,2970,330,,,,,,,,,,,,,,,
2865364,1501038967905,3.25,,0.14,-0.11,0.09,-6,-12,7,0,2940,330,,,,,,,,,,,,,,,
2865374,1501038967915,,,,,,,,,0,2850,330,,,,,,,,,,,,,,,
2865384,1501038967925,,,,,,,,,0,3000,330,,,,,,,,,,,,,,,
2865394,1501038967935,,,,,,,,,0,2985,330,,,,,,,,,,,,,,,
2865404,1501038967945,3.28,,0.15,-0.05,-0.02,-5,-11,7,0,2895,340,,,,,,,,,,,,,,,
2865414,1501038967955,,,,,,,,,0,2835,340,,,,,,,,,,,,,,,
2865424,1501038967965,,,,,,,,,0,3030,340,,,,,,,,,,,,,,,
2865434,1501038967975,,,,,,,,,0,2985,330,,,,,,,,,,,,,,,
2865444,1501038967985,3.26,,0.18,-0.12,-0.03,-6,-11,5,0,2955,330,36.113659,-115.14592,21.1,6.112,2046.1,9,3,1.1,0,0.0,-1,0.0,0.0,0.0,0
2865454,1501038967995,,,,,,,,,0,2865,330,,,,,,,,,,,,,,,
2865464,1501038967999,,,,,,,,,0,2985,340,,,,,,,,,,,,,,,
2865474,1501038968009,,,,,,,,,0,2985,340,,,,,,,,,,,,,,,
2865484,1501038968019,3.25,,0.17,-0.1,-0.03,-7,-11,5,0,2985,340,,,,,,,,,,,,,,,
2865494,1501038968029,,,,,,,,,0,2925,340,,,,,,,,,,,,,,,
2865504,1501038968039,,,,,,,,,0,2970,340,,,,,,,,,,,,,,,
2865514,1501038968049,,,,,,,,,0,2985,340,,,,,,,,,,,,,,,
2865524,1501038968059,3.23,,0.2,-0.07,-0.02,-7,-10,6,0,2955,340,,,,,,,,,,,,,,,
2865534,1501038968069,,,,,,,,,0,2865,340,,,,,,,,,,,,,,,
2865544,1501038968079,,,,,,,,,0,2985,340,36.113655,-115.14592,21.32,6.113,2046.1,9,3,1.1,0,0.0,-1,0.0,0.0,0.0,0
2865554,1501038968095,,,,,,,,,0,2985,340,,,,,,,,,,,,,,,
2865564,1501038968105,3.24,,0.17,-0.0,0.07,-5,-9,2,0,2970,340,,,,,,,,,,,,,,,
2865574,1501038968115,,,,,,,,,0,2895,340,,,,,,,,,,,,,,,
2865584,1501038968125,,,,,,,,,0,2985,340,,,,,,,,,,,,,,,
2865594,1501038968135,,,,,,,,,0,2985,340,,,,,,,,,,,,,,,
2865604,1501038968145,3.22,,0.16,-0.01,0.13,-4,-9,2,0,3000,340,,,,,,,,,,,,,,,
2865614,1501038968155,,,,,,,,,0,2865,340,,,,,,,,,,,,,,,
2865624,1501038968165,,,,,,,,,0,3000,340,,,,,,,,,,,,,,,
2865634,1501038968175,,,,,,,,,0,3000,340,,,,,,,,,,,,,,,
2865644,1501038968185,3.25,,0.15,0.08,0.12,-2,-10,1,0,2955,340,36.113655,-115.145935,21.43,6.113,2046.1,9,3,1.1,0,0.0,-1,0.0,0.0,0.0,0
2865654,1501038968195,,,,,,,,,0,2910,340,,,,,,,,,,,,,,,
2865664,1501038968205,,,,,,,,,0,3000,340,,,,,,,,,,,,,,,
2865674,1501038968215,,,,,,,,,0,3015,350,,,,,,,,,,,,,,,
2865684,1501038968225,3.22,,0.1,0.17,0.03,-1,-8,2,0,3015,350,,,,,,,,,,,,,,,
2865694,1501038968235,,,,,,,,,0,2895,350,,,,,,,,,,,,,,,
2865704,1501038968245,,,,,,,,,0,3015,340,,,,,,,,,,,,,,,
2865714,1501038968255,,,,,,,,,0,3015,340,,,,,,,,,,,,,,,
2865724,1501038968265,3.21,,0.09,0.24,0.05,0,-8,1,0,3000,340,,,,,,,,,,,,,,,
2865734,1501038968275,,,,,,,,,0,2925,340,,,,,,,,,,,,,,,
2865744,1501038968285,,,,,,,,,0,2985,340,36.113655,-115.14595,21.64,6.114,2046.0,9,3,1.1,0,0.0,-1,0.0,0.0,0.0,0
2865754,1501038968295,,,,,,,,,0,2985,340,,,,,,,,,,,,,,,
2865764,1501038968305,3.18,,-0.01,0.27,0.03,2,-5,2,0,2940,340,,,,,,,,,,,,,,,
2865774,1501038968315,,,,,,,,,0,2880,340,,,,,,,,,,,,,,,
2865784,1501038968325,,,,,,,,,0,2865,330,,,,,,,,,,,,,,,
2865794,1501038968335,,,,,,,,,0,2850,330,,,,,,,,,,,,,,,
2865804,1501038968345,3.19,,-0.07,0.33,-0.0,2,-4,1,0,2820,330,,,,,,,,,,,,,,,
2865814,1501038968355,,,,,,,,,0,2775,330,,,,,,,,,,,,,,,
2865824,1501038968365,,,,,,,,,0,2775,330,,,,,,,,,,,,,,,
2865834,1501038968375,,,,,,,,,0,2730,330,,,,,,,,,,,,,,,
2865844,1501038968385,3.18,,-0.14,0.33,0.17,2,-2,-1,0,2715,320,36.113655,-115.145958,22.02,6.114,2045.9,9,3,1.1,0,0.0,-1,0.0,0.0,0.0,0
2865854,1501038968395,,,,,,,,,0,2700,320,,,,,,,,,,,,,,,
2865864,1501038968405,,,,,,,,,0,2655,320,,,,,,,,,,,,,,,
2865874,1501038968415,,,,,,,,,0,2640,320,,,,,,,,,,,,,,,
2865884,1501038968425,3.2,,-0.19,0.25,0.23,2,3,-0,0,2595,310,,,,,,,,,,,,,,,
2865894,1501038968435,,,,,,,,,0,2580,310,,,,,,,,,,,,,,,
2865904,1501038968445,,,,,,,,,0,2535,310,,,,,,,,,,,,,,,
2865914,1501038968455,,,,,,,,,0,2520,300,,,,,,,,,,,,,,,
2865924,1501038968465,3.18,,-0.17,0.21,0.21,0,-2,-2,0,2505,300,,,,,,,,,,,,,,,
2865934,1501038968475,,,,,,,,,0,2475,300,,,,,,,,,,,,,,,
2865944,1501038968485,,,,,,,,,0,2475,290,36.113655,-115.145973,22.27,6.115,2046.1,9,3,1.1,0,0.0,-1,0.0,0.0,0.0,0
2865954,1501038968497,,,,,,,,,0,2460,290,,,,,,,,,,,,,,,
2865964,1501038968507,3.19,,-0.24,0.17,0.33,0,0,-2,0,2430,290,,,,,,,,,,,,,,,
2865974,1501038968517,,,,,,,,,0,2430,290,,,,,,,,,,,,,,,
2865984,1501038968527,,,,,,,,,0,2415,290,,,,,,,,,,,,,,,
2865994,1501038968537,,,,,,,,,0,2385,290,,,,,,,,,,,,,,,
2866004,1501038968547,3.18,,-0.33,0.12,0.5,-1,3,-2,0,2385,290,,,,,,,,,,,,,,,
2866014,1501038968557,,,,,,,,,0,2355,280,,,,,,,,,,,,,,,
2866024,1501038968567,,,,,,,,,0,2355,280,,,,,,,,,,,,,,,
2866034,1501038968577,,,,,,,,,0,2340,280,,,,,,,,,,,,,,,
2866044,1501038968587,3.15,4.51,-0.38,0.07,0.56,1,0,-3,0,2310,280,36.113655,-115.145988,21.71,6.116,2046.0,9,3,1.1,0,0.0,-1,0.0,0.0,0.0,0
2866054,1501038968596,,,,,,,,,0,2295,270,,,,,,,,,,,,,,,
2866064,1501038968606,,,,,,,,,0,2250,270,,,,,,,,,,,,,,,
2866074,1501038968616,,,,,,,,,0,2265,270,,,,,,,,,,,,,,,
2866084,1501038968626,3.16,,-0.5,0.1,0.74,2,3,-2,0,2235,270,,,,,,,,,,,,,,,
2866094,1501038968636,,,,,,,,,0,2205,260,,,,,,,,,,,,,,,
2866104,1501038968646,,,,,,,,,0,2175,260,,,,,,,,,,,,,,,
2866114,1501038968656,,,,,,,,,0,2175,260,,,,,,,,,,,,,,,
2866124,1501038968666,3.22,,-0.53,0.06,0.77,2,0,-3,0,2160,260,,,,,,,,,,,,,,,
2866134,1501038968676,,,,,,,,,0,2160,250,,,,,,,,,,,,,,,
2866144,1501038968686,,,,,,,,,0,2145,250,36.113651,-115.145988,21.15,6.116,2045.9,9,3,1.1,0,0.0,-1,0.0,0.0,0.0,0
2866154,1501038968694,,,,,,,,,0,2145,250,,,,,,,,,,,,,,,
2866164,1501038968704,3.16,,-0.62,0.06,0.88,2,3,-0,0,2100,250,,,,,,,,,,,,,,,
2866174,1501038968714,,,,,,,,,0,2100,240,,,,,,,,,,,,,,,
2866184,1501038968724,,,,,,,,,0,2085,240,,,,,,,,,,,,,,,
2866194,1501038968734,,,,,,,,,0,2085,240,,,,,,,,,,,,,,,
2866204,1501038968744,3.16,,-0.68,0.09,0.9,3,4,1,0,2040,240,,,,,,,,,,,,,,,
2866214,1501038968754,,,,,,,,,0,2025,240,,,,,,,,,,,,,,,
2866224,1501038968764,,,,,,,,,0,2025,240,,,,,,,,,,,,,,,
2866234,1501038968774,,,,,,,,,0,1995,240,,,,,,,,,,,,,,,
2866244,1501038968784,3.22,,-0.71,0.12,0.92,3,3,0,0,2010,240,36.113651,-115.145996,20.11,6.117,2045.7,9,3,1.1,0,0.0,-1,0.0,0.0,0.0,0
2866254,1501038968794,,,,,,,,,0,2010,230,,,,,,,,,,,,,,,
2866264,1501038968804,,,,,,,,,0,1965,230,,,,,,,,,,,,,,,
2866274,1501038968814,,,,,,,,,0,1965,230,,,,,,,,,,,,,,,
2866284,1501038968824,3.18,,-0.69,0.13,0.89,3,-1,-1,0,1920,230,,,,,,,,,,,,,,,
2866294,1501038968834,,,,,,,,,0,1920,230,,,,,,,,,,,,,,,
2866304,1501038968844,,,,,,,,,0,1920,230,,,,,,,,,,,,,,,
2866314,1501038968854,,,,,,,,,0,1905,230,,,,,,,,,,,,,,,
2866324,1501038968864,3.23,,-0.73,0.11,0.84,3,1,2,0,1890,230,,,,,,,,,,,,,,,
2866334,1501038968874,,,,,,,,,0,1860,230,,,,,,,,,,,,,,,
2866344,1501038968884,,,,,,,,,0,1830,210,36.113651,-115.146011,18.64,6.117,2045.6,9,3,1.1,0,0.0,-1,0.0,0.0,0.0,0
2866354,1501038968896,,,,,,,,,0,1815,210,,,,,,,,,,,,,,,
2866364,1501038968906,3.26,,-0.76,0.13,0.92,3,-0,2,0,1800,210,,,,,,,,,,,,,,,
2866374,1501038968916,,,,,,,,,0,1800,210,,,,,,,,,,,,,,,
2866384,1501038968926,,,,,,,,,0,1800,210,,,,,,,,,,,,,,,
2866394,1501038968936,,,,,,,,,0,1755,200,,,,,,,,,,,,,,,
2866404,1501038968946,3.26,,-0.76,0.04,0.99,3,-1,3,0,1725,200,,,,,,,,,,,,,,,
2866414,1501038968956,,,,,,,,,0,1710,200,,,,,,,,,,,,,,,
2866424,1501038968966,,,,,,,,,0,1710,200,,,,,,,,,,,,,,,
2866434,1501038968976,,,,,,,,,0,1680,200,,,,,,,,,,,,,,,
2866444,1501038968986,3.21,,-0.75,0.02,1.03,3,-3,2,0,1695,200,36.113651,-115.146027,17.21,6.118,2045.6,9,3,1.1,0,0.0,-1,0.0,0.0,0.0,0
2866454,1501038968996,,,,,,,,,0,1695,200,,,,,,,,,,,,,,,
2866464,1501038968998,,,,,,,,,0,1665,200,,,,,,,,,,,,,,,
2866474,1501038969008,,,,,,,,,0,1635,200,,,,,,,,,,,,,,,
2866484,1501038969018,3.19,,-0.71,0.05,1.03,3,-5,2,0,1605,200,,,,,,,,,,,,,,,
2866494,1501038969028,,,,,,,,,0,1590,180,,,,,,,,,,,,,,,
2866504,1501038969038,,,,,,,,,0,1575,180,,,,,,,,,,,,,,,
2866514,1501038969048,,,,,,,,,0,1590,180,,,,,,,,,,,,,,,
2866524,1501038969058,3.24,,-0.7,0.01,1.06,3,-8,2,0,1590,180,,,,,,,,,,,,,,,
2866534,1501038969068,,,,,,,,,0,1575,180,,,,,,,,,,,,,,,
2866544,1501038969078,,,,,,,,,0,1545,180,36.113651,-115.146027,16.03,6.118,2045.4,9,3,1.1,0,0.0,-1,0.0,0.0,0.0,0
2866554,1501038969094,,,,,,,,,0,1530,170,,,,,,,,,,,,,,,
2866564,1501038969104,3.24,,-0.72,-0.0,1.03,2,-7,3,0,1500,170,,,,,,,,,,,,,,,
2866574,1501038969114,,,,,,,,,0,1485,170,,,,,,,,,,,,,,,
2866584,1501038969124,,,,,,,,,0,1470,170,,,,,,,,,,,,,,,
2866594,1501038969134,,,,,,,,,0,1485,170,,,,,,,,,,,,,,,
2866604,1501038969144,3.2,,-0.74,0.09,0.98,2,-5,4,0,1470,170,,,,,,,,,,,,,,,
2866614,1501038969154,,,,,,,,,0,1455,160,,,,,,,,,,,,,,,
2866624,1501038969164,,,,,,,,,0,1425,160,,,,,,,,,,,,,,,
2866634,1501038969174,,,,,,,,,0,1410,160,,,,,,,,,,,,,,,
2866644,1501038969184,3.2,,-0.74,0.14,0.93,2,-5,5,0,1380,160,36.113651,-115.146034,14.05,6.119,2045.3,9,3,1.1,0,0.0,-1,0.0,0.0,0.0,0
2866654,1501038969194,,,,,,,,,0,1380,160,,,,,,,,,,,,,,,
2866664,1501038969204,,,,,,,,,0,1365,160,,,,,,,,,,,,,,,
2866674,1501038969214,,,,,,,,,0,1350,160,,,,,,,,,,,,,,,
2866684,1501038969224,3.23,,-0.76,0.19,0.96,2,-3,5,0,1380,140,,,,,,,,,,,,,,,
2866694,1501038969234,,,,,,,,,0,1395,140,,,,,,,,,,,,,,,
2866704,1501038969244,,,,,,,,,0,1365,140,,,,,,,,,,,,,,,
2866714,1501038969254,,,,,,,,,0,1335,140,,,,,,,,,,,,,,,
2866724,1501038969264,3.25,,-0.78,0.26,0.96,1,-0,5,0,1320,140,,,,,,,,,,,,,,,
2866734,1501038969274,,,,,,,,,0,1290,140,,,,,,,,,,,,,,,
2866744,1501038969284,,,,,,,,,0,1290,140,36.113651,-115.146034,12.29,6.119,2045.2,9,3,1.1,0,0.0,-1,0.0,0.0,0.0,0
2866754,1501038969294,,,,,,,,,0,1275,120,,,,,,,,,,,,,,,
2866764,1501038969304,3.24,,-0.77,0.24,0.92,2,-1,4,0,1260,120,,,,,,,,,,,,,,,
2866774,1501038969314,,,,,,,,,0,1305,120,,,,,,,,,,,,,,,
2866784,1501038969324,,,,,,,,,0,1335,120,,,,,,,,,,,,,,,
2866794,1501038969334,,,,,,,,,0,1305,120,,,,,,,,,,,,,,,
2866804,1501038969344,3.24,,-0.74,0.16,0.89,2,-4,4,0,1275,120,,,,,,,,,,,,,,,
2866814,1501038969354,,,,,,,,,0,1275,120,,,,,,,,,,,,,,,
2866824,1501038969364,,,,,,,,,0,1260,120,,,,,,,,,,,,,,,
2866834,1501038969374,,,,,,,,,0,1230,120,,,,,,,,,,,,,,,
2866844,1501038969384,3.25,,-0.74,0.12,0.89,2,-4,4,0,1215,110,36.113651,-115.14605,11.11,6.119,2045.1,9,3,1.1,0,0.0,-1,0.0,0.0,0.0,0
2866854,1501038969392,,,,,,,,,0,1170,110,,,,,,,,,,,,,,,
2866864,1501038969402,,,,,,,,,0,1275,110,,,,,,,,,,,,,,,
2866874,1501038969412,,,,,,,,,0,1275,110,,,,,,,,,,,,,,,
2866884,1501038969422,3.25,,-0.64,0.01,0.93,2,-4,4,0,1305,110,,,,,,,,,,,,,,,
2866894,1501038969432,,,,,,,,,0,1275,110,,,,,,,,,,,,,,,
2866904,1501038969442,,,,,,,,,0,1245,110,,,,,,,,,,,,,,,
2866914,1501038969452,,,,,,,,,0,1215,110,,,,,,,,,,,,,,,
2866924,1501038969462,3.15,,-0.65,0.02,0.98,2,-4,4,0,1185,110,,,,,,,,,,,,,,,
2866934,1501038969472,,,,,,,,,0,1185,110,,,,,,,,,,,,,,,
2866944,1501038969482,,,,,,,,,0,1155,620,36.113651,-115.14605,9.69,6.12,2044.9,9,3,1.1,0,0.0,-1,0.0,0.0,0.0,0
2866954,1501038969494,,,,,,,,,0,1080,620,,,,,,,,,,,,,,,
2866964,1501038969504,3.24,,-0.65,-0.05,1.12,1,-3,5,0,1305,620,,,,,,,,,,,,,,,
2866974,1501038969514,,,,,,,,,0,1410,620,,,,,,,,,,,,,,,
2866984,1501038969524,,,,,,,,,0,1380,620,,,,,,,,,,,,,,,
2866994,1501038969534,,,,,,,,,0,1335,620,,,,,,,,,,,,,,,
2867004,1501038969544,3.23,,-0.58,-0.06,1.21,1,-5,4,0,1335,620,,,,,,,,,,,,,,,
2867014,1501038969554,,,,,,,,,0,1320,620,,,,,,,,,,,,,,,
2867024,1501038969564,,,,,,,,,0,1275,620,,,,,,,,,,,,,,,
2867034,1501038969574,,,,,,,,,0,1245,620,,,,,,,,,,,,,,,
2867044,1501038969584,3.16,4.45,-0.54,-0.02,1.17,2,-9,2,0,1140,620,36.113651,-115.14605,8.34,6.12,2044.7,9,3,1.1,0,0.0,-1,0.0,0.0,0.0,0
2867054,1501038969593,,,,,,,,,0,1380,360,,,,,,,,,,,,,,,
2867064,1501038969603,,,,,,,,,0,1500,360,,,,,,,,,,,,,,,
2867074,1501038969613,,,,,,,,,0,1470,360,,,,,,,,,,,,,,,
2867084,1501038969623,3.26,,-0.5,0.03,1.09,1,-9,2,0,1425,360,,,,,,,,,,,,,,,
2867094,1501038969633,,,,,,,,,0,1380,360,,,,,,,,,,,,,,,
2867104,1501038969643,,,,,,,,,0,1380,360,,,,,,,,,,,,,,,
2867114,1501038969653,,,,,,,,,0,1335,360,,,,,,,,,,,,,,,
2867124,1501038969663,3.27,,-0.48,0.02,1.03,1,-11,3,0,1275,360,,,,,,,,,,,,,,,
2867134,1501038969673,,,,,,,,,0,1155,360,,,,,,,,,,,,,,,
2867144,1501038969683,,,,,,,,,0,1365,360,36.113647,-115.146065,7.04,6.12,2044.5,9,3,1.1,0,0.0,-1,0.0,0.0,0.0,0
2867154,1501038969693,,,,,,,,,0,1470,360,,,,,,,,,,,,,,,
2867164,1501038969703,3.21,,-0.41,-0.03,1.07,-0,-10,6,0,1425,360,,,,,,,,,,,,,,,
2867174,1501038969713,,,,,,,,,0,1365,360,,,,,,,,,,,,,,,
2867184,1501038969723,,,,,,,,,0,1320,360,,,,,,,,,,,,,,,
2867194,1501038969733,,,,,,,,,0,1320,200,,,,,,,,,,,,,,,
2867204,1501038969743,3.25,,-0.39,0.02,1.08,0,-10,6,0,1260,200,,,,,,,,,,,,,,,
2867214,1501038969753,,,,,,,,,0,1215,200,,,,,,,,,,,,,,,
2867224,1501038969763,,,,,,,,,0,1080,200,,,,,,,,,,,,,,,
2867234,1501038969773,,,,,,,,,0,1260,200,,,,,,,,,,,,,,,
2867244,1501038969783,3.18,,-0.35,0.06,1.0,0,-11,4,0,1380,200,36.113647,-115.146065,5.35,6.12,2044.4,9,3,1.1,0,0.0,-1,0.0,0.0,0.0,0
2867254,1501038969795,,,,,,,,,0,1380,200,,,,,,,,,,,,,,,
2867264,1501038969805,,,,,,,,,0,1335,200,,,,,,,,,,,,,,,
2867274,1501038969815,,,,,,,,,0,1290,200,,,,,,,,,,,,,,,
2867284,1501038969825,3.26,,-0.35,0.06,0.99,1,-9,3,0,1245,10000000,,,,,,,,,,,,,,,
2867294,1501038969835,,,,,,,,,0,1200,0,,,,,,,,,,,,,,,
2867304,1501038969845,,,,,,,,,0,1200,0,,,,,,,,,,,,,,,
2867314,1501038969855,,,,,,,,,0,1155,0,,,,,,,,,,,,,,,
2867324,1501038969865,3.25,,-0.37,0.04,0.93,1,-11,2,0,1020,0,,,,,,,,,,,,,,,
2867334,1501038969875,,,,,,,,,0,1110,0,,,,,,,,,,,,,,,
2867344,1501038969885,,,,,,,,,0,1110,0,36.113647,-115.146065,4.59,6.12,2044.3,9,3,1.1,0,0.0,-1,0.0,0.0,0.0,0
2867354,1501038969895,,,,,,,,,0,1185,0,,,,,,,,,,,,,,,
2867364,1501038969905,3.2,,-0.41,0.01,0.93,0,-9,3,0,1155,0,,,,,,,,,,,,,,,
2867374,1501038969915,,,,,,,,,0,1110,0,,,,,,,,,,,,,,,
2867384,1501038969925,,,,,,,,,0,1110,0,,,,,,,,,,,,,,,
2867394,1501038969935,,,,,,,,,0,1080,350,,,,,,,,,,,,,,,
2867404,1501038969945,3.19,,-0.39,-0.01,0.93,-0,-6,3,0,1035,350,,,,,,,,,,,,,,,
2867414,1501038969955,,,,,,,,,0,1035,350,,,,,,,,,,,,,,,
2867424,1501038969965,,,,,,,,,0,990,350,,,,,,,,,,,,,,,
2867434,1501038969975,,,,,,,,,0,990,350,,,,,,,,,,,,,,,
2867444,1501038969985,3.22,,-0.45,-0.06,0.98,-0,-5,3,0,840,350,36.113647,-115.146065,3.85,6.121,2044.2,9,3,1.1,0,0.0,-1,0.0,0.0,0.0,0
2867454,1501038969995,,,,,,,,,0,900,350,,,,,,,,,,,,,,,
2867464,1501038969997,,,,,,,,,0,900,350,,,,,,,,,,,,,,,
2867474,1501038970007,,,,,,,,,0,930,350,,,,,,,,,,,,,,,
2867484,1501038970017,3.2,,-0.54,-0.05,1.05,0,-2,2,0,930,350,,,,,,,,,,,,,,,
2867494,1501038970027,,,,,,,,,0,915,350,,,,,,,,,,,,,,,
2867504,1501038970037,,,,,,,,,0,900,350,,,,,,,,,,,,,,,
2867514,1501038970047,,,,,,,,,0,900,350,,,,,,,,,,,,,,,
2867524,1501038970057,3.2,,-0.54,-0.05,1.14,0,-1,2,0,915,350,,,,,,,,,,,,,,,
2867534,1501038970067,,,,,,,,,0,915,350,,,,,,,,,,,,,,,
2867544,1501038970077,,,,,,,,,0,900,0,36.113647,-115.146065,3.3,6.121,2043.9,9,3,1.1,0,0.0,-1,0.0,0.0,0.0,0
2867554,1501038970093,,,,,,,,,0,885,0,,,,,,,,,,,,,,,
2867564,1501038970103,3.2,,-0.54,-0.03,1.16,-0,0,2,0,885,0,,,,,,,,,,,,,,,
2867574,1501038970113,,,,,,,,,0,765,0,,,,,,,,,,,,,,,
2867584,1501038970123,,,,,,,,,0,765,0,,,,,,,,,,,,,,,
2867594,1501038970133,,,,,,,,,0,825,0,,,,,,,,,,,,,,,
2867604,1501038970143,3.2,,-0.5,-0.02,1.11,-1,-1,3,0,825,0,,,,,,,,,,,,,,,
2867614,1501038970153,,,,,,,,,0,855,0,,,,,,,,,,,,,,,
2867624,1501038970163,,,,,,,,,0,855,0,,,,,,,,,,,,,,,
2867634,1501038970173,,,,,,,,,0,855,0,,,,,,,,,,,,,,,
2867644,1501038970183,3.17,,-0.43,-0.02,1.11,-1,-5,3,0,840,0,36.113647,-115.146065,2.16,6.121,2043.6,9,3,1.1,0,0.0,-1,0.0,0.0,0.0,0
2867654,1501038970195,,,,,,,,,0,840,0,,,,,,,,,,,,,,,
2867664,1501038970205,,,,,,,,,0,840,0,,,,,,,,,,,,,,,
2867674,1501038970215,,,,,,,,,0,840,0,,,,,,,,,,,,,,,
2867684,1501038970225,3.24,,-0.35,-0.01,1.1,-1,-9,4,0,825,0,,,,,,,,,,,,,,,
2867694,1501038970235,,,,,,,,,0,825,0,,,,,,,,,,,,,,,
2867704,1501038970245,,,,,,,,,0,825,0,,,,,,,,,,,,,,,
2867714,1501038970255,,,,,,,,,0,825,0,,,,,,,,,,,,,,,
2867724,1501038970265,3.23,,-0.29,-0.03,1.1,-1,-13,4,0,690,0,,,,,,,,,,,,,,,
2867734,1501038970275,,,,,,,,,0,690,0,,,,,,,,,,,,,,,
2867744,1501038970285,,,,,,,,,0,750,0,36.113647,-115.146065,0.0,6.121,2043.3,9,3,1.1,0,0.0,-1,0.0,0.0,0.0,0
2867754,1501038970295,,,,,,,,,0,750,0,,,,,,,,,,,,,,,
2867764,1501038970305,3.24,,-0.22,-0.03,1.09,-2,-15,5,0,780,0,,,,,,,,,,,,,,,
2867774,1501038970315,,,,,,,,,0,780,0,,,,,,,,,,,,,,,
2867784,1501038970325,,,,,,,,,0,765,0,,,,,,,,,,,,,,,
2867794,1501038970335,,,,,,,,,0,765,0,,,,,,,,,,,,,,,
2867804,1501038970345,3.24,,-0.17,-0.02,1.06,-2,-16,5,0,750,0,,,,,,,,,,,,,,,
2867814,1501038970355,,,,,,,,,0,750,0,,,,,,,,,,,,,,,
2867824,1501038970365,,,,,,,,,0,765,0,,,,,,,,,,,,,,,
2867834,1501038970375,,,,,,,,,0,765,0,,,,,,,,,,,,,,,
2867844,1501038970385,3.24,,-0.13,-0.03,1.03,-2,-17,5,0,735,0,36.113647,-115.146065,0.0,6.121,2043.3,9,3,1.1,0,0.0,-1,0.0,0.0,0.0,0
2867854,1501038970395,,,,,,,,,0,735,0,,,,,,,,,,,,,,,
2867864,1501038970405,,,,,,,,,0,735,0,,,,,,,,,,,,,,,
2867874,1501038970415,,,,,,,,,0,735,0,,,,,,,,,,,,,,,
2867884,1501038970425,3.23,,-0.11,-0.03,1.02,-2,-15,5,0,660,0,,,,,,,,,,,,,,,
2867894,1501038970435,,,,,,,,,0,660,0,,,,,,,,,,,,,,,
2867904,1501038970445,,,,,,,,,0,705,0,,,,,,,,,,,,,,,
2867914,1501038970455,,,,,,,,,0,705,0,,,,,,,,,,,,,,,
2867924,1501038970465,3.24,,-0.08,-0.02,1.04,-2,-12,4,0,705,0,,,,,,,,,,,,,,,
2867934,1501038970475,,,,,,,,,0,690,0,,,,,,,,,,,,,,,
2867944,1501038970485,,,,,,,,,0,690,0,36.113647,-115.146065,0.0,6.121,2043.2,9,3,1.1,0,0.0,-1,0.0,0.0,0.0,0
2867954,1501038970495,,,,,,,,,0,675,0,,,,,,,,,,,,,,,
2867964,1501038970505,3.24,,-0.06,-0.0,1.04,-2,-11,5,0,675,0,,,,,,,,,,,,,,,
2867974,1501038970515,,,,,,,,,0,660,0,,,,,,,,,,,,,,,
2867984,1501038970525,,,,,,,,,0,660,0,,,,,,,,,,,,,,,
2867994,1501038970535,,,,,,,,,0,660,0,,,,,,,,,,,,,,,
2868004,1501038970545,3.24,,0.0,-0.01,1.06,-1,-10,5,0,660,0,,,,,,,,,,,,,,,
2868014,1501038970555,,,,,,,,,0,660,0,,,,,,,,,,,,,,,
2868024,1501038970565,,,,,,,,,0,645,0,,,,,,,,,,,,,,,
2868034,1501038970575,,,,,,,,,0,645,0,,,,,,,,,,,,,,,
2868044,1501038970585,3.19,4.5,0.05,-0.02,1.04,-1,-10,5,0,630,0,36.113647,-115.146065,0.0,6.121,2043.0,9,3,1.1,0,0.0,-1,0.0,0.0,0.0,0
2868054,1501038970594,,,,,,,,,0,630,0,,,,,,,,,,,,,,,
2868064,1501038970604,,,,,,,,,0,630,0,,,,,,,,,,,,,,,
2868074,1501038970614,,,,,,,,,0,570,0,,,,,,,,,,,,,,,
2868084,1501038970624,3.24,,0.07,-0.02,1.04,-1,-9,4,0,570,0,,,,,,,,,,,,,,,
2868094,1501038970634,,,,,,,,,0,600,0,,,,,,,,,,,,,,,
2868104,1501038970644,,,,,,,,,0,600,0,,,,,,,,,,,,,,,
2868114,1501038970654,,,,,,,,,0,600,0,,,,,,,,,,,,,,,
2868124,1501038970664,3.24,,0.07,-0.02,1.03,-1,-8,4,0,585,0,,,,,,,,,,,,,,,
2868134,1501038970674,,,,,,,,,0,585,0,,,,,,,,,,,,,,,
2868144,1501038970684,,,,,,,,,0,585,0,36.113647,-115.146065,0.0,6.121,2042.8,9,3,1.1,0,0.0,-1,0.0,0.0,0.0,0
2868154,1501038970694,,,,,,,,,0,570,0,,,,,,,,,,,,,,,
2868164,1501038970704,3.24,,0.05,-0.01,1.04,-1,-8,4,0,570,0,,,,,,,,,,,,,,,
2868174,1501038970714,,,,,,,,,0,555,0,,,,,,,,,,,,,,,
2868184,1501038970724,,,,,,,,,0,555,0,,,,,,,,,,,,,,,
2868194,1501038970734,,,,,,,,,0,555,0,,,,,,,,,,,,,,,
2868204,1501038970744,3.23,,0.03,-0.01,1.03,-1,-7,4,0,555,0,,,,,,,,,,,,,,,
2868214,1501038970754,,,,,,,,,0,555,0,,,,,,,,,,,,,,,
2868224,1501038970764,,,,,,,,,0,555,0,,,,,,,,,,,,,,,
2868234,1501038970774,,,,,,,,,0,540,0,,,,,,,,,,,,,,,
2868244,1501038970784,3.23,,0.04,-0.01,1.02,-1,-6,4,0,540,0,36.113647,-115.146065,0.0,6.121,2042.8,9,3,1.1,0,0.0,-1,0.0,0.0,0.0,0
2868254,1501038970796,,,,,,,,,0,540,0,,,,,,,,,,,,,,,
2868264,1501038970806,,,,,,,,,0,525,0,,,,,,,,,,,,,,,
2868274,1501038970816,,,,,,,,,0,525,0,,,,,,,,,,,,,,,
2868284,1501038970826,3.23,,0.05,-0.01,1.01,-1,-4,4,0,525,0,,,,,,,,,,,,,,,
2868294,1501038970836,,,,,,,,,0,450,0,,,,,,,,,,,,,,,
2868304,1501038970846,,,,,,,,,0,450,0,,,,,,,,,,,,,,,
2868314,1501038970856,,,,,,,,,0,450,0,,,,,,,,,,,,,,,
2868324,1501038970866,3.21,,0.04,-0.02,1.04,-1,-5,4,0,510,0,,,,,,,,,,,,,,,
2868334,1501038970876,,,,,,,,,0,510,0,,,,,,,,,,,,,,,
2868344,1501038970886,,,,,,,,,0,555,0,36.113647,-115.146065,0.0,6.121,2042.8,9,3,1.1,0,0.0,-1,0.0,0.0,0.0,0
2868354,1501038970896,,,,,,,,,0,555,0,,,,,,,,,,,,,,,
2868364,1501038970906,3.23,,0.02,-0.02,1.05,-1,-5,4,0,555,0,,,,,,,,,,,,,,,
2868374,1501038970916,,,,,,,,,0,540,0,,,,,,,,,,,,,,,
2868384,1501038970926,,,,,,,,,0,540,0,,,,,,,,,,,,,,,
2868394,1501038970936,,,,,,,,,0,540,0,,,,,,,,,,,,,,,
2868404,1501038970946,3.21,,0.01,-0.02,1.02,-1,-5,4,0,525,0,,,,,,,,,,,,,,,
2868414,1501038970956,,,,,,,,,0,525,0,,,,,,,,,,,,,,,
2868424,1501038970966,,,,,,,,,0,525,0,,,,,,,,,,,,,,,
2868434,1501038970976,,,,,,,,,0,510,0,,,,,,,,,,,,,,,
2868444,1501038970986,3.23,,0.02,-0.03,1.01,-2,-5,4,0,510,0,36.113647,-115.146065,0.0,6.121,2042.8,9,3,1.1,0,0.0,-1,0.0,0.0,0.0,0
2868454,1501038970996,,,,,,,,,0,510,0,,,,,,,,,,,,,,,
2868464,1501038970998,,,,,,,,,0,495,0,,,,,,,,,,,,,,,
2868474,1501038971008,,,,,,,,,0,495,0,,,,,,,,,,,,,,,
2868484,1501038971018,3.23,,0.03,-0.01,1.03,-2,-6,5,0,495,0,,,,,,,,,,,,,,,
2868494,1501038971028,,,,,,,,,0,495,0,,,,,,,,,,,,,,,
2868504,1501038971038,,,,,,,,,0,495,0,,,,,,,,,,,,,,,
2868514,1501038971048,,,,,,,,,0,495,0,,,,,,,,,,,,,,,
2868524,1501038971058,3.22,,0.02,-0.01,1.04,-2,-6,5,0,495,0,,,,,,,,,,,,,,,
2868534,1501038971068,,,,,,,,,0,405,0,,,,,,,,,,,,,,,
2868544,1501038971078,,,,,,,,,0,405,0,36.113647,-115.146065,0.0,6.121,2042.9,9,3,1.9,0,0.0,-1,0.0,0.0,0.0,0
2868554,1501038971094,,,,,,,,,0,525,0,,,,,,,,,,,,,,,
2868564,1501038971104,3.22,,0.01,-0.04,1.02,-2,-7,5,0,525,0,,,,,,,,,,,,,,,
2868574,1501038971114,,,,,,,,,0,645,0,,,,,,,,,,,,,,,
2868584,1501038971124,,,,,,,,,0,645,0,,,,,,,,,,,,,,,
2868594,1501038971134,,,,,,,,,0,645,0,,,,,,,,,,,,,,,
2868604,1501038971144,3.22,,0.03,-0.04,0.99,-2,-6,5,0,630,0,,,,,,,,,,,,,,,
2868614,1501038971154,,,,,,,,,0,630,0,,,,,,,,,,,,,,,
2868624,1501038971164,,,,,,,,,0,615,0,,,,,,,,,,,,,,,
2868634,1501038971174,,,,,,,,,0,615,0,,,,,,,,,,,,,,,
2868644,1501038971184,3.24,,0.04,-0.02,0.99,-2,-5,4,0,615,0,36.113647,-115.146065,0.0,6.121,2043.0,9,3,1.9,0,0.0,-1,0.0,0.0,0.0,0
2868654,1501038971194,,,,,,,,,0,615,0,,,,,,,,,,,,,,,
2868664,1501038971204,,,,,,,,,0,615,0,,,,,,,,,,,,,,,
2868674,1501038971214,,,,,,,,,0,600,0,,,,,,,,,,,,,,,
2868684,1501038971224,3.22,,0.03,-0.01,1.02,-1,-5,4,0,600,0,,,,,,,,,,,,,,,
2868694,1501038971234,,,,,,,,,0,600,0,,,,,,,,,,,,,,,
2868704,1501038971244,,,,,,,,,0,585,0,,,,,,,,,,,,,,,
2868714,1501038971254,,,,,,,,,0,585,0,,,,,,,,,,,,,,,
2868724,1501038971264,3.25,,0.02,-0.01,1.02,-1,-6,4,0,510,0,,,,,,,,,,,,,,,
2868734,1501038971274,,,,,,,,,0,510,0,,,,,,,,,,,,,,,
2868744,1501038971284,,,,,,,,,0,720,0,36.113647,-115.146065,0.0,6.121,2043.0,9,3,1.9,0,0.0,-1,0.0,0.0,0.0,0
2868754,1501038971294,,,,,,,,,0,720,0,,,,,,,,,,,,,,,
2868764,1501038971304,3.22,,0.0,-0.03,1.0,-2,-5,4,0,840,0,,,,,,,,,,,,,,,
2868774,1501038971314,,,,,,,,,0,825,0,,,,,,,,,,,,,,,
2868784,1501038971324,,,,,,,,,0,825,0,,,,,,,,,,,,,,,
2868794,1501038971334,,,,,,,,,0,825,0,,,,,,,,,,,,,,,
2868804,1501038971344,3.21,,0.02,-0.02,1.0,-2,-5,4,0,825,0,,,,,,,,,,,,,,,
2868814,1501038971354,,,,,,,,,0,825,0,,,,,,,,,,,,,,,
2868824,1501038971364,,,,,,,,,0,825,0,,,,,,,,,,,,,,,
2868834,1501038971374,,,,,,,,,0,810,0,,,,,,,,,,,,,,,
2868844,1501038971384,3.22,,0.03,-0.02,1.01,-2,-5,4,0,810,0,36.113647,-115.146065,0.0,6.121,2043.0,9,3,1.9,0,0.0,-1,0.0,0.0,0.0,0
2868854,1501038971394,,,,,,,,,0,810,0,,,,,,,,,,,,,,,
2868864,1501038971404,,,,,,,,,0,810,0,,,,,,,,,,,,,,,
2868874,1501038971414,,,,,,,,,0,750,0,,,,,,,,,,,,,,,
2868884,1501038971424,3.22,,0.03,-0.01,0.99,-1,-5,3,0,990,0,,,,,,,,,,,,,,,
2868894,1501038971434,,,,,,,,,0,1095,0,,,,,,,,,,,,,,,
2868904,1501038971444,,,,,,,,,0,1095,0,,,,,,,,,,,,,,,
2868914,1501038971454,,,,,,,,,0,1095,0,,,,,,,,,,,,,,,
2868924,1501038971464,3.2,,0.0,-0.04,0.96,-1,-6,3,0,1080,0,,,,,,,,,,,,,,,
2868934,1501038971474,,,,,,,,,0,1080,0,,,,,,,,,,,,,,,
2868944,1501038971484,,,,,,,,,0,1080,0,36.113647,-115.146065,0.0,6.121,2043.0,9,3,2.0,0,0.0,-1,0.0,0.0,0.0,0
2868954,1501038971494,,,,,,,,,0,1080,0,,,,,,,,,,,,,,,
2868964,1501038971504,3.21,,0.02,-0.06,0.95,-1,-6,3,0,1065,0,,,,,,,,,,,,,,,
2868974,1501038971514,,,,,,,,,0,975,0,,,,,,,,,,,,,,,
2868984,1501038971524,,,,,,,,,0,975,0,,,,,,,,,,,,,,,
2868994,1501038971534,,,,,,,,,0,1290,0,,,,,,,,,,,,,,,
2869004,1501038971544,3.23,,0.02,-0.1,0.97,-2,-7,5,0,1440,0,,,,,,,,,,,,,,,
2869014,1501038971554,,,,,,,,,0,1440,0,,,,,,,,,,,,,,,
2869024,1501038971564,,,,,,,,,0,1425,0,,,,,,,,,,,,,,,
2869034,1501038971574,,,,,,,,,0,1440,0,,,,,,,,,,,,,,,
2869044,1501038971584,3.22,4.52,0.01,-0.06,1.0,-1,-7,4,0,1440,0,36.113647,-115.146065,0.0,6.121,2043.0,9,3,1.9,0,0.0,-1,0.0,0.0,0.0,0
2869054,1501038971593,,,,,,,,,0,1425,0,,,,,,,,,,,,,,,
2869064,1501038971603,,,,,,,,,0,1350,0,,,,,,,,,,,,,,,
2869074,1501038971613,,,,,,,,,0,1740,0,,,,,,,,,,,,,,,
2869084,1501038971623,3.22,,-0.03,-0.06,0.91,-1,-7,4,0,1740,0,,,,,,,,,,,,,,,
2869094,1501038971633,,,,,,,,,0,1740,0,,,,,,,,,,,,,,,
2869104,1501038971643,,,,,,,,,0,1740,0,,,,,,,,,,,,,,,
2869114,1501038971653,,,,,,,,,0,1725,0,,,,,,,,,,,,,,,
2869124,1501038971663,3.21,,-0.02,-0.1,0.93,-1,-6,4,0,1725,0,,,,,,,,,,,,,,,
2869134,1501038971673,,,,,,,,,0,1665,0,,,,,,,,,,,,,,,
2869144,1501038971683,,,,,,,,,0,1710,0,36.113647,-115.146065,0.0,6.121,2043.0,9,3,1.9,0,0.0,-1,0.0,0.0,0.0,0
2869154,1501038971693,,,,,,,,,0,1710,0,,,,,,,,,,,,,,,
2869164,1501038971697,3.21,,0.01,-0.1,0.94,-1,-6,5,0,1680,0,,,,,,,,,,,,,,,
2869174,1501038971707,,,,,,,,,0,1695,0,,,,,,,,,,,,,,,
2869184,1501038971717,,,,,,,,,0,1695,0,,,,,,,,,,,,,,,
2869194,1501038971727,,,,,,,,,0,1680,0,,,,,,,,,,,,,,,
2869204,1501038971737,3.15,,0.01,-0.06,0.94,-1,-8,4,0,1875,0,,,,,,,,,,,,,,,
2869214,1501038971747,,,,,,,,,0,1995,0,,,,,,,,,,,,,,,
2869224,1501038971757,,,,,,,,,0,1995,0,,,,,,,,,,,,,,,
2869234,1501038971767,,,,,,,,,0,1995,0,,,,,,,,,,,,,,,
2869244,1501038971777,3.2,,-0.01,-0.06,0.89,-0,-5,4,0,1965,0,36.113647,-115.146065,0.0,6.121,2043.0,9,3,1.9,0,0.0,-1,0.0,0.0,0.0,0
2869254,1501038971793,,,,,,,,,0,1965,0,,,,,,,,,,,,,,,
2869264,1501038971803,,,,,,,,,0,1965,0,,,,,,,,,,,,,,,
2869274,1501038971813,,,,,,,,,0,1965,0,,,,,,,,,,,,,,,
2869284,1501038971823,3.23,,-0.0,-0.06,0.87,-0,-6,4,0,1950,0,,,,,,,,,,,,,,,
2869294,1501038971833,,,,,,,,,0,1935,0,,,,,,,,,,,,,,,
2869304,1501038971843,,,,,,,,,0,1950,0,,,,,,,,,,,,,,,
2869314,1501038971853,,,,,,,,,0,1920,0,,,,,,,,,,,,,,,
2869324,1501038971863,3.21,,0.02,-0.05,0.88,-1,-6,3,0,1875,0,,,,,,,,,,,,,,,
2869334,1501038971873,,,,,,,,,0,2190,0,,,,,,,,,,,,,,,
2869344,1501038971883,,,,,,,,,0,2205,0,36.113647,-115.146065,0.0,6.121,2043.0,9,3,1.9,0,0.0,-1,0.0,0.0,0.0,0
2869354,1501038971893,,,,,,,,,0,2220,0,,,,,,,,,,,,,,,
2869364,1501038971903,3.2,,-0.01,-0.01,0.96,-1,-3,4,0,2190,0,,,,,,,,,,,,,,,
2869374,1501038971913,,,,,,,,,0,2130,0,,,,,,,,,,,,,,,
2869384,1501038971923,,,,,,,,,0,2340,0,,,,,,,,,,,,,,,
2869394,1501038971933,,,,,,,,,0,2445,0,,,,,,,,,,,,,,,
2869404,1501038971943,3.16,,0.01,0.02,0.82,-1,-7,1,0,2445,0,,,,,,,,,,,,,,,
2869414,1501038971953,,,,,,,,,0,2415,0,,,,,,,,,,,,,,,
2869424,1501038971963,,,,,,,,,0,2370,0,,,,,,,,,,,,,,,
2869434,1501038971973,,,,,,,,,0,2640,0,,,,,,,,,,,,,,,
2869444,1501038971983,3.15,,-0.02,0.0,0.99,-1,-3,0,0,2625,0,36.113647,-115.146065,0.0,6.121,2043.0,9,3,1.9,0,0.0,-1,0.0,0.0,0.0,0
2869454,1501038971993,,,,,,,,,0,2625,0,,,,,,,,,,,,,,,
2869464,1501038971997,,,,,,,,,0,2610,0,,,,,,,,,,,,,,,
2869474,1501038972007,,,,,,,,,0,2760,0,,,,,,,,,,,,,,,
2869484,1501038972017,3.2,,0.04,-0.04,1.12,-1,-3,4,0,2820,0,,,,,,,,,,,,,,,
2869494,1501038972027,,,,,,,,,0,2835,0,,,,,,,,,,,,,,,
2869504,1501038972037,,,,,,,,,0,2835,0,,,,,,,,,,,,,,,
2869514,1501038972047,,,,,,,,,0,2760,0,,,,,,,,,,,,,,,
2869524,1501038972057,3.19,,0.09,-0.08,1.07,-1,-6,5,0,3000,0,,,,,,,,,,,,,,,
2869534,1501038972067,,,,,,,,,0,2985,0,,,,,,,,,,,,,,,
2869544,1501038972077,,,,,,,,,0,2970,0,36.113647,-115.146065,0.0,6.121,2043.0,9,3,1.9,0,0.0,-1,0.0,0.0,0.0,0
2869554,1501038972095,,,,,,,,,0,2970,0,,,,,,,,,,,,,,,
2869564,1501038972105,3.17,,0.11,-0.13,0.94,-1,-9,8,0,2970,0,,,,,,,,,,,,,,,
2869574,1501038972115,,,,,,,,,0,2940,0,,,,,,,,,,,,,,,
2869584,1501038972125,,,,,,,,,0,2955,0,,,,,,,,,,,,,,,
2869594,1501038972135,,,,,,,,,0,2940,0,,,,,,,,,,,,,,,
2869604,1501038972145,3.15,,0.09,-0.17,0.8,-2,-10,9,0,2925,0,,,,,,,,,,,,,,,
2869614,1501038972155,,,,,,,,,0,2910,0,,,,,,,,,,,,,,,
2869624,1501038972165,,,,,,,,,0,2895,0,,,,,,,,,,,,,,,
2869634,1501038972175,,,,,,,,,0,2895,0,,,,,,,,,,,,,,,
2869644,1501038972185,3.17,,0.05,-0.17,0.67,-3,-12,10,0,2880,0,36.113647,-115.146065,0.0,6.121,2043.0,9,3,1.9,0,0.0,-1,0.0,0.0,0.0,0
2869654,1501038972195,,,,,,,,,0,2865,0,,,,,,,,,,,,,,,
2869664,1501038972205,,,,,,,,,0,2880,0,,,,,,,,,,,,,,,
2869674,1501038972215,,,,,,,,,0,2850,0,,,,,,,,,,,,,,,
2869684,1501038972225,3.17,,0.02,-0.17,0.58,-3,-14,11,0,2850,0,,,,,,,,,,,,,,,
2869694,1501038972235,,,,,,,,,0,2850,0,,,,,,,,,,,,,,,
2869704,1501038972245,,,,,,,,,0,2850,0,,,,,,,,,,,,,,,
2869714,1501038972255,,,,,,,,,0,2835,0,,,,,,,,,,,,,,,
2869724,1501038972265,3.2,,-0.03,-0.19,0.49,-3,-15,9,0,2850,0,,,,,,,,,,,,,,,
2869734,1501038972275,,,,,,,,,0,2820,0,,,,,,,,,,,,,,,
2869744,1501038972285,,,,,,,,,0,2820,0,36.113647,-115.146065,0.0,6.121,2043.0,9,3,1.9,0,0.0,-1,0.0,0.0,0.0,0
2869754,1501038972295,,,,,,,,,0,2790,0,,,,,,,,,,,,,,,
2869764,1501038972305,3.18,,-0.08,-0.16,0.42,-4,-15,9,0,2820,0,,,,,,,,,,,,,,,
2869774,1501038972315,,,,,,,,,0,2775,0,,,,,,,,,,,,,,,
2869784,1501038972325,,,,,,,,,0,2760,0,,,,,,,,,,,,,,,
2869794,1501038972335,,,,,,,,,0,2745,0,,,,,,,,,,,,,,,
2869804,1501038972345,3.21,,-0.14,-0.09,0.49,-4,-10,8,0,2745,0,,,,,,,,,,,,,,,
2869814,1501038972355,,,,,,,,,0,2730,0,,,,,,,,,,,,,,,
2869824,1501038972365,,,,,,,,,0,2715,0,,,,,,,,,,,,,,,
2869834,1501038972375,,,,,,,,,0,2715,0,,,,,,,,,,,,,,,
2869844,1501038972385,3.21,,-0.14,-0.03,0.64,-3,-5,6,0,2730,0,36.113647,-115.146065,0.0,6.121,2043.0,9,3,1.9,0,0.0,-1,0.0,0.0,0.0,0
2869854,1501038972395,,,,,,,,,0,2745,0,,,,,,,,,,,,,,,
2869864,1501038972405,,,,,,,,,0,2715,0,,,,,,,,,,,,,,,
2869874,1501038972415,,,,,,,,,0,2700,0,,,,,,,,,,,,,,,
2869884,1501038972425,3.22,,-0.07,-0.03,0.87,-2,-2,7,0,2685,0,,,,,,,,,,,,,,,
2869894,1501038972435,,,,,,,,,0,2670,0,,,,,,,,,,,,,,,
2869904,1501038972445,,,,,,,,,0,2670,0,,,,,,,,,,,,,,,
2869914,1501038972455,,,,,,,,,0,2655,0,,,,,,,,,,,,,,,
2869924,1501038972465,3.22,,0.0,-0.03,0.88,-2,-4,7,0,2655,0,,,,,,,,,,,,,,,
2869934,1501038972475,,,,,,,,,0,2640,0,,,,,,,,,,,,,,,
2869944,1501038972485,,,,,,,,,0,2655,0,36.113647,-115.146065,0.0,6.121,2043.0,9,3,1.9,0,0.0,-1,0.0,0.0,0.0,0
2869954,1501038972495,,,,,,,,,0,2640,0,,,,,,,,,,,,,,,
2869964,1501038972505,3.2,,0.02,-0.07,0.8,-2,-8,4,0,2625,0,,,,,,,,,,,,,,,
2869974,1501038972515,,,,,,,,,0,2610,0,,,,,,,,,,,,,,,
2869984,1501038972525,,,,,,,,,0,2610,0,,,,,,,,,,,,,,,
2869994,1501038972535,,,,,,,,,0,2625,0,,,,,,,,,,,,,,,
2870004,1501038972545,3.21,,-0.06,-0.04,0.84,-2,-5,4,0,2580,0,,,,,,,,,,,,,,,
2870014,1501038972555,,,,,,,,,0,2595,0,,,,,,,,,,,,,,,
2870024,1501038972565,,,,,,,,,0,2580,0,,,,,,,,,,,,,,,
2870034,1501038972575,,,,,,,,,0,2580,0,,,,,,,,,,,,,,,
2870044,1501038972585,3.2,4.5,-0.03,-0.01,0.98,-2,-2,3,0,2580,0,36.113647,-115.146065,0.0,6.121,2043.0,9,3,1.9,0,0.0,-1,0.0,0.0,0.0,0
2870054,1501038972594,,,,,,,,,0,2565,0,,,,,,,,,,,,,,,
2870064,1501038972604,,,,,,,,,0,2550,0,,,,,,,,,,,,,,,
2870074,1501038972614,,,,,,,,,0,2550,0,,,,,,,,,,,,,,,
2870084,1501038972624,3.2,,0.03,0.0,0.95,-2,-4,4,0,2580,0,,,,,,,,,,,,,,,
2870094,1501038972634,,,,,,,,,0,2535,0,,,,,,,,,,,,,,,
2870104,1501038972644,,,,,,,,,0,2535,0,,,,,,,,,,,,,,,
2870114,1501038972654,,,,,,,,,0,2505,0,,,,,,,,,,,,,,,
2870124,1501038972664,3.2,,0.01,-0.06,0.89,-2,-5,3,0,2505,0,,,,,,,,,,,,,,,
2870134,1501038972674,,,,,,,,,0,2535,0,,,,,,,,,,,,,,,
2870144,1501038972684,,,,,,,,,0,2490,0,36.113647,-115.146065,0.0,6.121,2043.0,9,3,1.9,0,0.0,-1,0.0,0.0,0.0,0
2870154,1501038972694,,,,,,,,,0,2505,0,,,,,,,,,,,,,,,
2870164,1501038972704,3.18,,-0.01,-0.03,0.98,-2,-5,3,0,2490,0,,,,,,,,,,,,,,,
2870174,1501038972714,,,,,,,,,0,2505,0,,,,,,,,,,,,,,,
2870184,1501038972724,,,,,,,,,0,2475,0,,,,,,,,,,,,,,,
