"Interval"|"ms"|0|0|1,"Utc"|"ms"|0|0|1,"Analog1"|""|0.0|5.0|25,"Battery"|"Volts"|0.0|20.0|1,"AccelX"|"G"|-3.0|3.0|25,"AccelY"|"G"|-3.0|3.0|25,"AccelZ"|"G"|-3.0|3.0|25,"Yaw"|"Deg/Sec"|-120|120|25,"Pitch"|"Deg/Sec"|-120|120|25,"Roll"|"Deg/Sec"|-120|120|25,"RPM"|""|0|10000|100,"EngineRPM"|""|0|10000|100,"AxleRpm"|""|0|10000|100,"Latitude"|"Degrees"|-180.0|180.0|10,"Longitude"|"Degrees"|-180.0|180.0|10,"Speed"|"mph"|0.0|150.0|10,"Distance"|"mi"|0.0|0.0|10,"Altitude"|"ft"|0.0|4000.0|10,"GPSSats"|""|0|20|10,"GPSQual"|""|0|5|10,"GPSDOP"|""|0.0|20.0|10,"LapCount"|""|0|0|10,"LapTime"|"Min"|0.0|0.0|10,"Sector"|""|0|0|10,"SectorTime"|"Min"|0.0|0.0|10,"PredTime"|"Min"|0.0|0.0|10,"ElapsedTime"|"Min"|0.0|0.0|10,"CurrentLap"|""|0|0|10
2693284,1501038795823,3.18,,-0.04,-0.01,1.17,-2,-7,3,0,1665,0,,,,,,,,,,,,,,,
2693294,1501038795833,,,,,,,,,0,1650,0,,,,,,,,,,,,,,,
2693304,1501038795843,,,,,,,,,0,1605,0,,,,,,,,,,,,,,,
2693314,1501038795853,,,,,,,,,0,1575,0,,,,,,,,,,,,,,,
2693324,1501038795863,3.2,,-0.03,-0.03,1.09,-2,-7,3,0,1545,0,,,,,,,,,,,,,,,
2693334,1501038795873,,,,,,,,,0,1515,0,,,,,,,,,,,,,,,
2693344,1501038795883,,,,,,,,,0,1440,0,36.113674,-115.145668,0.0,5.719,2041.1,9,3,1.8,0,0.0,-1,0.0,0.0,0.0,0
2693354,1501038795893,,,,,,,,,0,1605,0,,,,,,,,,,,,,,,
2693364,1501038795903,3.21,,-0.0,-0.07,1.01,-2,-7,3,0,1665,0,,,,,,,,,,,,,,,
2693374,1501038795913,,,,,,,,,0,1635,0,,,,,,,,,,,,,,,
2693384,1501038795923,,,,,,,,,0,1605,0,,,,,,,,,,,,,,,
2693394,1501038795933,,,,,,,,,0,1575,0,,,,,,,,,,,,,,,
2693404,1501038795943,3.2,,-0.01,-0.08,0.97,-2,-6,3,0,1545,0,,,,,,,,,,,,,,,
2693414,1501038795953,,,,,,,,,0,1500,0,,,,,,,,,,,,,,,
2693424,1501038795963,,,,,,,,,0,1440,0,,,,,,,,,,,,,,,
2693434,1501038795973,,,,,,,,,0,1665,0,,,,,,,,,,,,,,,
2693444,1501038795983,3.17,,0.0,-0.07,0.89,-2,-6,4,0,1635,0,36.113674,-115.145668,0.0,5.719,2041.1,9,3,1.8,0,0.0,-1,0.0,0.0,0.0,0
2693454,1501038795993,,,,,,,,,0,1605,0,,,,,,,,,,,,,,,
2693464,1501038795997,,,,,,,,,0,1575,0,,,,,,,,,,,,,,,
2693474,1501038796007,,,,,,,,,0,1545,0,,,,,,,,,,,,,,,
2693484,1501038796017,3.21,,-0.02,-0.03,0.94,-2,-6,4,0,1515,0,,,,,,,,,,,,,,,
2693494,1501038796027,,,,,,,,,0,1440,0,,,,,,,,,,,,,,,
2693504,1501038796037,,,,,,,,,0,1605,0,,,,,,,,,,,,,,,
2693514,1501038796047,,,,,,,,,0,1665,0,,,,,,,,,,,,,,,
2693524,1501038796057,3.2,,-0.05,-0.02,0.87,-1,-3,4,0,1650,0,,,,,,,,,,,,,,,
2693534,1501038796067,,,,,,,,,0,1605,0,,,,,,,,,,,,,,,
2693544,1501038796077,,,,,,,,,0,1575,0,36.113674,-115.145668,0.0,5.719,2041.1,9,3,1.8,0,0.0,-1,0.0,0.0,0.0,0
2693554,1501038796093,,,,,,,,,0,1545,0,,,,,,,,,,,,,,,
2693564,1501038796103,3.2,,-0.02,-0.02,0.96,-1,-2,4,0,1515,0,,,,,,,,,,,,,,,
2693574,1501038796113,,,,,,,,,0,1440,0,,,,,,,,,,,,,,,
2693584,1501038796123,,,,,,,,,0,1605,0,,,,,,,,,,,,,,,
2693594,1501038796133,,,,,,,,,0,1680,0,,,,,,,,,,,,,,,
2693604,1501038796143,3.18,,-0.03,-0.02,0.97,-1,-0,4,0,1650,0,,,,,,,,,,,,,,,
2693614,1501038796153,,,,,,,,,0,1605,0,,,,,,,,,,,,,,,
2693624,1501038796163,,,,,,,,,0,1590,0,,,,,,,,,,,,,,,
2693634,1501038796173,,,,,,,,,0,1545,0,,,,,,,,,,,,,,,
2693644,1501038796183,3.14,,-0.03,-0.02,1.06,-1,-1,4,0,1440,0,36.113674,-115.145668,0.0,5.719,2041.1,9,3,1.8,0,0.0,-1,0.0,0.0,0.0,0
2693654,1501038796193,,,,,,,,,0,1605,0,,,,,,,,,,,,,,,
2693664,1501038796203,,,,,,,,,0,1665,0,,,,,,,,,,,,,,,
2693674,1501038796213,,,,,,,,,0,1650,0,,,,,,,,,,,,,,,
2693684,1501038796223,3.19,,-0.03,-0.0,1.09,-1,-1,4,0,1605,0,,,,,,,,,,,,,,,
2693694,1501038796233,,,,,,,,,0,1590,0,,,,,,,,,,,,,,,
2693704,1501038796243,,,,,,,,,0,1545,0,,,,,,,,,,,,,,,
2693714,1501038796253,,,,,,,,,0,1515,0,,,,,,,,,,,,,,,
2693724,1501038796263,3.16,,-0.01,-0.04,1.07,-0,-3,4,0,1440,0,,,,,,,,,,,,,,,
2693734,1501038796273,,,,,,,,,0,1605,0,,,,,,,,,,,,,,,
2693744,1501038796283,,,,,,,,,0,1650,0,36.113674,-115.145668,0.0,5.719,2041.1,9,3,1.8,0,0.0,-1,0.0,0.0,0.0,0
2693754,1501038796295,,,,,,,,,0,1635,0,,,,,,,,,,,,,,,
2693764,1501038796305,3.18,,0.02,-0.05,1.03,-0,-4,3,0,1590,0,,,,,,,,,,,,,,,
2693774,1501038796315,,,,,,,,,0,1575,0,,,,,,,,,,,,,,,
2693784,1501038796325,,,,,,,,,0,1530,0,,,,,,,,,,,,,,,
2693794,1501038796335,,,,,,,,,0,1500,0,,,,,,,,,,,,,,,
2693804,1501038796345,3.17,,0.05,-0.06,0.99,-1,-8,3,0,1425,0,,,,,,,,,,,,,,,
2693814,1501038796355,,,,,,,,,0,1590,0,,,,,,,,,,,,,,,
2693824,1501038796365,,,,,,,,,0,1650,0,,,,,,,,,,,,,,,
2693834,1501038796375,,,,,,,,,0,1605,0,,,,,,,,,,,,,,,
2693844,1501038796385,3.18,,0.03,-0.04,1.01,-1,-7,5,0,1575,0,36.113674,-115.145668,0.0,5.719,2041.1,9,3,1.8,0,0.0,-1,0.0,0.0,0.0,0
2693854,1501038796395,,,,,,,,,0,1545,0,,,,,,,,,,,,,,,
2693864,1501038796398,,,,,,,,,0,1515,0,,,,,,,,,,,,,,,
2693874,1501038796408,,,,,,,,,0,1425,0,,,,,,,,,,,,,,,
2693884,1501038796418,3.17,,0.0,-0.02,0.94,-0,-7,4,0,1605,0,,,,,,,,,,,,,,,
2693894,1501038796428,,,,,,,,,0,1665,0,,,,,,,,,,,,,,,
2693904,1501038796438,,,,,,,,,0,1650,0,,,,,,,,,,,,,,,
2693914,1501038796448,,,,,,,,,0,1605,0,,,,,,,,,,,,,,,
2693924,1501038796458,3.18,,-0.01,-0.04,0.98,-1,-5,3,0,1575,0,,,,,,,,,,,,,,,
2693934,1501038796468,,,,,,,,,0,1545,0,,,,,,,,,,,,,,,
2693944,1501038796478,,,,,,,,,0,1515,0,36.113674,-115.145668,0.0,5.719,2041.1,9,3,1.8,0,0.0,-1,0.0,0.0,0.0,0
2693954,1501038796492,,,,,,,,,0,1440,0,,,,,,,,,,,,,,,
2693964,1501038796502,3.2,,-0.03,0.02,0.94,-2,-3,4,0,1605,0,,,,,,,,,,,,,,,
2693974,1501038796512,,,,,,,,,0,1665,0,,,,,,,,,,,,,,,
2693984,1501038796522,,,,,,,,,0,1650,0,,,,,,,,,,,,,,,
2693994,1501038796532,,,,,,,,,0,1605,0,,,,,,,,,,,,,,,
2694004,1501038796542,3.18,,-0.03,-0.02,0.94,-2,-2,4,0,1575,0,,,,,,,,,,,,,,,
2694014,1501038796552,,,,,,,,,0,1545,0,,,,,,,,,,,,,,,
2694024,1501038796562,,,,,,,,,0,1515,0,,,,,,,,,,,,,,,
2694034,1501038796572,,,,,,,,,0,1605,0,,,,,,,,,,,,,,,
2694044,1501038796582,3.18,4.48,-0.03,-0.03,1.02,-1,-1,4,0,1665,0,36.113674,-115.145668,0.0,5.719,2041.1,9,3,1.8,0,0.0,-1,0.0,0.0,0.0,0
2694054,1501038796592,,,,,,,,,0,1635,0,,,,,,,,,,,,,,,
2694064,1501038796602,,,,,,,,,0,1605,0,,,,,,,,,,,,,,,
2694074,1501038796612,,,,,,,,,0,1575,0,,,,,,,,,,,,,,,
2694084,1501038796622,3.19,,-0.04,-0.01,1.0,-1,-3,3,0,1545,0,,,,,,,,,,,,,,,
2694094,1501038796632,,,,,,,,,0,1515,0,,,,,,,,,,,,,,,
2694104,1501038796642,,,,,,,,,0,1425,0,,,,,,,,,,,,,,,
2694114,1501038796652,,,,,,,,,0,1590,0,,,,,,,,,,,,,,,
2694124,1501038796662,3.2,,-0.03,-0.02,0.96,-1,-3,2,0,1665,0,,,,,,,,,,,,,,,
2694134,1501038796672,,,,,,,,,0,1635,0,,,,,,,,,,,,,,,
2694144,1501038796682,,,,,,,,,0,1605,0,36.113674,-115.145668,0.0,5.719,2041.1,9,3,1.8,0,0.0,-1,0.0,0.0,0.0,0
2694154,1501038796692,,,,,,,,,0,1575,0,,,,,,,,,,,,,,,
2694164,1501038796702,3.2,,-0.02,-0.01,0.92,-1,-4,4,0,1545,0,,,,,,,,,,,,,,,
2694174,1501038796712,,,,,,,,,0,1515,0,,,,,,,,,,,,,,,
2694184,1501038796722,,,,,,,,,0,1425,0,,,,,,,,,,,,,,,
2694194,1501038796732,,,,,,,,,0,1590,0,,,,,,,,,,,,,,,
2694204,1501038796742,3.2,,0.01,-0.03,0.93,-1,-7,5,0,1665,0,,,,,,,,,,,,,,,
2694214,1501038796752,,,,,,,,,0,1605,0,,,,,,,,,,,,,,,
2694224,1501038796762,,,,,,,,,0,1575,0,,,,,,,,,,,,,,,
2694234,1501038796772,,,,,,,,,0,1545,0,,,,,,,,,,,,,,,
2694244,1501038796782,3.15,,-0.02,-0.02,0.92,-1,-6,4,0,1515,0,36.113674,-115.145668,0.0,5.719,2041.1,9,3,1.8,0,0.0,-1,0.0,0.0,0.0,0
2694254,1501038796792,,,,,,,,,0,1425,0,,,,,,,,,,,,,,,
2694264,1501038796802,,,,,,,,,0,1605,0,,,,,,,,,,,,,,,
2694274,1501038796812,,,,,,,,,0,1665,0,,,,,,,,,,,,,,,
2694284,1501038796822,3.18,,-0.04,-0.03,0.89,-1,-7,3,0,1650,0,,,,,,,,,,,,,,,
2694294,1501038796832,,,,,,,,,0,1605,0,,,,,,,,,,,,,,,
2694304,1501038796842,,,,,,,,,0,1590,0,,,,,,,,,,,,,,,
2694314,1501038796852,,,,,,,,,0,1545,0,,,,,,,,,,,,,,,
2694324,1501038796862,3.2,,-0.02,-0.01,0.98,-1,-4,4,0,1515,0,,,,,,,,,,,,,,,
2694334,1501038796872,,,,,,,,,0,1440,0,,,,,,,,,,,,,,,
2694344,1501038796882,,,,,,,,,0,1605,0,36.113674,-115.145668,0.0,5.719,2041.1,9,3,1.8,0,0.0,-1,0.0,0.0,0.0,0
2694354,1501038796892,,,,,,,,,0,1665,0,,,,,,,,,,,,,,,
2694364,1501038796902,3.18,,-0.05,-0.01,0.98,-2,-3,4,0,1650,0,,,,,,,,,,,,,,,
2694374,1501038796912,,,,,,,,,0,1605,0,,,,,,,,,,,,,,,
2694384,1501038796922,,,,,,,,,0,1590,0,,,,,,,,,,,,,,,
2694394,1501038796932,,,,,,,,,0,1560,0,,,,,,,,,,,,,,,
2694404,1501038796942,3.2,,-0.03,-0.02,1.05,-2,-4,5,0,1515,0,,,,,,,,,,,,,,,
2694414,1501038796952,,,,,,,,,0,1605,0,,,,,,,,,,,,,,,
2694424,1501038796962,,,,,,,,,0,1680,0,,,,,,,,,,,,,,,
2694434,1501038796972,,,,,,,,,0,1650,0,,,,,,,,,,,,,,,
2694444,1501038796982,3.18,,-0.05,0.0,1.04,-1,-3,5,0,1605,0,36.113674,-115.145668,0.0,5.719,2041.1,9,3,1.8,0,0.0,-1,0.0,0.0,0.0,0
2694454,1501038796992,,,,,,,,,0,1590,0,,,,,,,,,,,,,,,
2694464,1501038796996,,,,,,,,,0,1545,0,,,,,,,,,,,,,,,
2694474,1501038797006,,,,,,,,,0,1530,0,,,,,,,,,,,,,,,
2694484,1501038797016,3.17,,-0.03,-0.03,1.01,-1,-4,3,0,1440,0,,,,,,,,,,,,,,,
2694494,1501038797026,,,,,,,,,0,1605,0,,,,,,,,,,,,,,,
2694504,1501038797036,,,,,,,,,0,1680,0,,,,,,,,,,,,,,,
2694514,1501038797046,,,,,,,,,0,1650,0,,,,,,,,,,,,,,,
2694524,1501038797056,3.2,,0.01,-0.02,0.97,-1,-4,3,0,1605,0,,,,,,,,,,,,,,,
2694534,1501038797066,,,,,,,,,0,1590,0,,,,,,,,,,,,,,,
2694544,1501038797076,,,,,,,,,0,1545,0,36.113674,-115.145668,0.0,5.719,2041.1,9,3,1.8,0,0.0,-1,0.0,0.0,0.0,0
2694554,1501038797092,,,,,,,,,0,1515,0,,,,,,,,,,,,,,,
2694564,1501038797102,3.17,,0.02,-0.03,0.92,-1,-7,3,0,1440,0,,,,,,,,,,,,,,,
2694574,1501038797112,,,,,,,,,0,1605,0,,,,,,,,,,,,,,,
2694584,1501038797122,,,,,,,,,0,1650,0,,,,,,,,,,,,,,,
2694594,1501038797132,,,,,,,,,0,1605,0,,,,,,,,,,,,,,,
2694604,1501038797142,3.18,,-0.01,-0.01,1.01,-1,-6,4,0,1575,0,,,,,,,,,,,,,,,
2694614,1501038797152,,,,,,,,,0,1545,0,,,,,,,,,,,,,,,
2694624,1501038797162,,,,,,,,,0,1515,0,,,,,,,,,,,,,,,
2694634,1501038797172,,,,,,,,,0,1440,0,,,,,,,,,,,,,,,
2694644,1501038797182,3.18,,-0.03,0.0,0.92,-1,-7,3,0,1605,0,36.113674,-115.145668,0.0,5.719,2041.1,9,3,1.8,0,0.0,-1,0.0,0.0,0.0,0
2694654,1501038797194,,,,,,,,,0,1665,0,,,,,,,,,,,,,,,
2694664,1501038797204,,,,,,,,,0,1635,0,,,,,,,,,,,,,,,
2694674,1501038797214,,,,,,,,,0,1605,0,,,,,,,,,,,,,,,
2694684,1501038797224,3.19,,-0.02,-0.03,1.02,-1,-6,3,0,1575,0,,,,,,,,,,,,,,,
2694694,1501038797234,,,,,,,,,0,1545,0,,,,,,,,,,,,,,,
2694704,1501038797244,,,,,,,,,0,1515,0,,,,,,,,,,,,,,,
2694714,1501038797254,,,,,,,,,0,1425,0,,,,,,,,,,,,,,,
2694724,1501038797264,3.2,,-0.03,0.01,0.98,-2,-3,4,0,1590,0,,,,,,,,,,,,,,,
2694734,1501038797274,,,,,,,,,0,1665,0,,,,,,,,,,,,,,,
2694744,1501038797284,,,,,,,,,0,1635,0,36.113674,-115.145668,0.0,5.719,2041.1,9,3,1.8,0,0.0,-1,0.0,0.0,0.0,0
2694754,1501038797294,,,,,,,,,0,1605,0,,,,,,,,,,,,,,,
2694764,1501038797304,3.18,,-0.02,-0.01,0.97,-2,-4,4,0,1575,0,,,,,,,,,,,,,,,
2694774,1501038797314,,,,,,,,,0,1545,0,,,,,,,,,,,,,,,
2694784,1501038797324,,,,,,,,,0,1500,0,,,,,,,,,,,,,,,
2694794,1501038797334,,,,,,,,,0,1425,0,,,,,,,,,,,,,,,
2694804,1501038797344,3.14,,-0.02,-0.03,1.02,-2,-2,4,0,1665,0,,,,,,,,,,,,,,,
2694814,1501038797354,,,,,,,,,0,1635,0,,,,,,,,,,,,,,,
2694824,1501038797364,,,,,,,,,0,1605,0,,,,,,,,,,,,,,,
2694834,1501038797374,,,,,,,,,0,1575,0,,,,,,,,,,,,,,,
2694844,1501038797384,3.18,,-0.03,-0.01,0.99,-1,-4,4,0,1545,0,36.113674,-115.145668,0.0,5.719,2041.1,9,3,1.8,0,0.0,-1,0.0,0.0,0.0,0
2694854,1501038797393,,,,,,,,,0,1515,0,,,,,,,,,,,,,,,
2694864,1501038797403,,,,,,,,,0,1440,0,,,,,,,,,,,,,,,
2694874,1501038797413,,,,,,,,,0,1605,0,,,,,,,,,,,,,,,
2694884,1501038797423,3.21,,-0.0,-0.04,0.94,-1,-4,3,0,1665,0,,,,,,,,,,,,,,,
2694894,1501038797433,,,,,,,,,0,1635,0,,,,,,,,,,,,,,,
2694904,1501038797443,,,,,,,,,0,1605,0,,,,,,,,,,,,,,,
2694914,1501038797453,,,,,,,,,0,1575,0,,,,,,,,,,,,,,,
2694924,1501038797463,3.21,,-0.01,-0.04,0.88,-1,-5,4,0,1545,0,,,,,,,,,,,,,,,
2694934,1501038797473,,,,,,,,,0,1515,0,,,,,,,,,,,,,,,
2694944,1501038797483,,,,,,,,,0,1425,0,36.113674,-115.145668,0.0,5.719,2041.1,9,3,1.8,0,0.0,-1,0.0,0.0,0.0,0
2694954,1501038797493,,,,,,,,,0,1605,0,,,,,,,,,,,,,,,
2694964,1501038797503,3.2,,0.01,-0.04,0.92,-1,-7,5,0,1665,0,,,,,,,,,,,,,,,
2694974,1501038797513,,,,,,,,,0,1635,0,,,,,,,,,,,,,,,
2694984,1501038797523,,,,,,,,,0,1575,0,,,,,,,,,,,,,,,
2694994,1501038797533,,,,,,,,,0,1545,0,,,,,,,,,,,,,,,
2695004,1501038797543,3.16,,-0.02,-0.03,0.89,-1,-5,5,0,1515,0,,,,,,,,,,,,,,,
2695014,1501038797553,,,,,,,,,0,1425,0,,,,,,,,,,,,,,,
2695024,1501038797563,,,,,,,,,0,1605,0,,,,,,,,,,,,,,,
2695034,1501038797573,,,,,,,,,0,1665,0,,,,,,,,,,,,,,,
2695044,1501038797583,3.19,4.5,-0.04,-0.04,0.92,-1,-7,4,0,1635,0,36.113674,-115.145668,0.0,5.719,2041.1,9,3,1.8,0,0.0,-1,0.0,0.0,0.0,0
2695054,1501038797593,,,,,,,,,0,1605,0,,,,,,,,,,,,,,,
2695064,1501038797603,,,,,,,,,0,1575,0,,,,,,,,,,,,,,,
2695074,1501038797613,,,,,,,,,0,1545,0,,,,,,,,,,,,,,,
2695084,1501038797623,3.2,,-0.05,-0.01,0.96,-2,-4,4,0,1515,0,,,,,,,,,,,,,,,
2695094,1501038797633,,,,,,,,,0,1425,0,,,,,,,,,,,,,,,
2695104,1501038797643,,,,,,,,,0,1590,0,,,,,,,,,,,,,,,
2695114,1501038797653,,,,,,,,,0,1665,0,,,,,,,,,,,,,,,
2695124,1501038797663,3.2,,-0.06,-0.03,0.92,-2,-3,4,0,1650,0,,,,,,,,,,,,,,,
2695134,1501038797673,,,,,,,,,0,1605,0,,,,,,,,,,,,,,,
2695144,1501038797683,,,,,,,,,0,1575,0,36.113674,-115.145668,0.0,5.719,2041.1,9,3,1.8,0,0.0,-1,0.0,0.0,0.0,0
2695154,1501038797693,,,,,,,,,0,1545,0,,,,,,,,,,,,,,,
2695164,1501038797703,3.2,,-0.01,-0.03,1.07,-2,-5,4,0,1515,0,,,,,,,,,,,,,,,
2695174,1501038797713,,,,,,,,,0,1425,0,,,,,,,,,,,,,,,
2695184,1501038797723,,,,,,,,,0,1665,0,,,,,,,,,,,,,,,
2695194,1501038797733,,,,,,,,,0,1650,0,,,,,,,,,,,,,,,
2695204,1501038797743,3.18,,-0.03,-0.01,1.02,-2,-2,4,0,1605,0,,,,,,,,,,,,,,,
2695214,1501038797753,,,,,,,,,0,1575,0,,,,,,,,,,,,,,,
2695224,1501038797763,,,,,,,,,0,1545,0,,,,,,,,,,,,,,,
2695234,1501038797773,,,,,,,,,0,1515,0,,,,,,,,,,,,,,,
2695244,1501038797783,3.17,,-0.05,-0.01,1.03,-1,-3,3,0,1440,0,36.113674,-115.145668,0.0,5.719,2041.1,9,3,1.8,0,0.0,-1,0.0,0.0,0.0,0
2695254,1501038797793,,,,,,,,,0,1590,0,,,,,,,,,,,,,,,
2695264,1501038797803,,,,,,,,,0,1665,0,,,,,,,,,,,,,,,
2695274,1501038797813,,,,,,,,,0,1635,0,,,,,,,,,,,,,,,
2695284,1501038797823,3.2,,-0.03,0.01,1.01,-1,-4,4,0,1605,0,,,,,,,,,,,,,,,
2695294,1501038797833,,,,,,,,,0,1575,0,,,,,,,,,,,,,,,
2695304,1501038797843,,,,,,,,,0,1545,0,,,,,,,,,,,,,,,
2695314,1501038797853,,,,,,,,,0,1515,0,,,,,,,,,,,,,,,
2695324,1501038797863,3.17,,0.04,-0.04,1.0,-1,-7,4,0,1425,0,,,,,,,,,,,,,,,
2695334,1501038797873,,,,,,,,,0,1605,0,,,,,,,,,,,,,,,
2695344,1501038797883,,,,,,,,,0,1665,0,36.113674,-115.145668,0.0,5.719,2041.1,9,3,1.8,0,0.0,-1,0.0,0.0,0.0,0
2695354,1501038797893,,,,,,,,,0,1650,0,,,,,,,,,,,,,,,
2695364,1501038797903,3.19,,0.08,-0.04,0.96,-1,-8,4,0,1605,0,,,,,,,,,,,,,,,
2695374,1501038797913,,,,,,,,,0,1575,0,,,,,,,,,,,,,,,
2695384,1501038797923,,,,,,,,,0,1545,0,,,,,,,,,,,,,,,
2695394,1501038797933,,,,,,,,,0,1515,0,,,,,,,,,,,,,,,
2695404,1501038797943,3.14,,0.08,-0.02,0.91,-1,-10,3,0,1590,0,,,,,,,,,,,,,,,
2695414,1501038797953,,,,,,,,,0,1650,0,,,,,,,,,,,,,,,
2695424,1501038797963,,,,,,,,,0,1620,0,,,,,,,,,,,,,,,
2695434,1501038797973,,,,,,,,,0,1560,0,,,,,,,,,,,,,,,
2695444,1501038797983,3.19,,0.16,0.0,0.99,-1,-12,4,0,1515,0,36.113674,-115.145668,0.0,5.719,2041.1,9,3,1.8,0,0.0,-1,0.0,0.0,0.0,0
2695454,1501038797993,,,,,,,,,0,1470,0,,,,,,,,,,,,,,,
2695464,1501038797997,,,,,,,,,0,1470,0,,,,,,,,,,,,,,,
2695474,1501038798007,,,,,,,,,0,1425,0,,,,,,,,,,,,,,,
2695484,1501038798017,3.12,,0.2,-0.01,0.99,-0,-16,4,0,1500,0,,,,,,,,,,,,,,,
2695494,1501038798027,,,,,,,,,0,1590,0,,,,,,,,,,,,,,,
2695504,1501038798037,,,,,,,,,0,1560,0,,,,,,,,,,,,,,,
2695514,1501038798047,,,,,,,,,0,1515,0,,,,,,,,,,,,,,,
2695524,1501038798057,3.03,,0.23,-0.01,0.97,0,-17,3,0,1470,0,,,,,,,,,,,,,,,
2695534,1501038798067,,,,,,,,,0,1470,0,,,,,,,,,,,,,,,
2695544,1501038798077,,,,,,,,,0,1440,0,36.113674,-115.145668,0.0,5.719,2041.1,9,3,1.8,0,0.0,-1,0.0,0.0,0.0,0
2695554,1501038798093,,,,,,,,,0,1395,0,,,,,,,,,,,,,,,
2695564,1501038798103,3.11,,0.25,-0.01,0.95,0,-18,2,0,1290,0,,,,,,,,,,,,,,,
2695574,1501038798113,,,,,,,,,0,1305,0,,,,,,,,,,,,,,,
2695584,1501038798123,,,,,,,,,0,1305,450,,,,,,,,,,,,,,,
2695594,1501038798133,,,,,,,,,0,1260,450,,,,,,,,,,,,,,,
2695604,1501038798143,3.14,,0.26,-0.01,0.89,1,-17,2,0,1260,450,,,,,,,,,,,,,,,
2695614,1501038798153,,,,,,,,,0,1200,450,,,,,,,,,,,,,,,
2695624,1501038798163,,,,,,,,,0,1155,450,,,,,,,,,,,,,,,
2695634,1501038798173,,,,,,,,,0,1110,450,,,,,,,,,,,,,,,
2695644,1501038798183,3.13,,0.29,0.0,0.87,2,-16,2,0,1110,450,36.113674,-115.145668,0.0,5.719,2041.1,9,3,1.8,0,0.0,-1,0.0,0.0,0.0,0
2695654,1501038798193,,,,,,,,,0,1065,450,,,,,,,,,,,,,,,
2695664,1501038798203,,,,,,,,,0,930,450,,,,,,,,,,,,,,,
2695674,1501038798213,,,,,,,,,0,1140,450,,,,,,,,,,,,,,,
2695684,1501038798223,3.13,,0.2,-0.01,0.84,1,-10,4,0,1140,450,,,,,,,,,,,,,,,
2695694,1501038798233,,,,,,,,,0,1290,450,,,,,,,,,,,,,,,
2695704,1501038798243,,,,,,,,,0,1290,450,,,,,,,,,,,,,,,
2695714,1501038798253,,,,,,,,,0,1275,450,,,,,,,,,,,,,,,
2695724,1501038798263,3.17,,0.14,-0.02,0.83,1,-4,2,0,1275,0,,,,,,,,,,,,,,,
2695734,1501038798273,,,,,,,,,0,1260,0,,,,,,,,,,,,,,,
2695744,1501038798283,,,,,,,,,0,1260,0,36.113674,-115.145668,0.0,5.719,2041.1,9,3,1.8,0,0.0,-1,0.0,0.0,0.0,0
2695754,1501038798295,,,,,,,,,0,1245,0,,,,,,,,,,,,,,,
2695764,1501038798305,3.16,,0.12,-0.03,0.83,1,-3,1,0,1170,0,,,,,,,,,,,,,,,
2695774,1501038798315,,,,,,,,,0,1380,0,,,,,,,,,,,,,,,
2695784,1501038798325,,,,,,,,,0,1515,0,,,,,,,,,,,,,,,
2695794,1501038798335,,,,,,,,,0,1500,0,,,,,,,,,,,,,,,
2695804,1501038798345,3.12,,0.15,-0.03,0.84,1,-1,1,0,1485,0,,,,,,,,,,,,,,,
2695814,1501038798355,,,,,,,,,0,1485,0,,,,,,,,,,,,,,,
2695824,1501038798365,,,,,,,,,0,1455,0,,,,,,,,,,,,,,,
2695834,1501038798375,,,,,,,,,0,1440,0,,,,,,,,,,,,,,,
2695844,1501038798385,3.16,,0.16,-0.05,0.84,1,-1,2,0,1350,6080,36.113674,-115.145668,0.0,5.719,2041.1,9,3,1.8,0,0.0,-1,0.0,0.0,0.0,0
2695854,1501038798392,,,,,,,,,0,1620,6080,,,,,,,,,,,,,,,
2695864,1501038798402,,,,,,,,,0,1710,6080,,,,,,,,,,,,,,,
2695874,1501038798412,,,,,,,,,0,1695,6080,,,,,,,,,,,,,,,
2695884,1501038798422,3.17,,0.21,-0.05,0.84,1,-2,1,0,1665,6080,,,,,,,,,,,,,,,
2695894,1501038798432,,,,,,,,,0,1650,6080,,,,,,,,,,,,,,,
2695904,1501038798442,,,,,,,,,0,1620,6080,,,,,,,,,,,,,,,
2695914,1501038798452,,,,,,,,,0,1545,6080,,,,,,,,,,,,,,,
2695924,1501038798462,3.19,,0.2,-0.03,0.78,-1,-2,4,0,1770,6080,,,,,,,,,,,,,,,
2695934,1501038798472,,,,,,,,,0,1860,6080,,,,,,,,,,,,,,,
2695944,1501038798482,,,,,,,,,0,1830,6080,36.11367,-115.145668,1.14,5.719,2040.5,9,3,1.8,0,0.0,-1,0.0,0.0,0.0,0
2695954,1501038798494,,,,,,,,,0,1815,6080,,,,,,,,,,,,,,,
2695964,1501038798504,3.17,,0.25,-0.05,0.84,-1,-7,4,0,1800,6080,,,,,,,,,,,,,,,
2695974,1501038798514,,,,,,,,,0,1770,6080,,,,,,,,,,,,,,,
2695984,1501038798524,,,,,,,,,0,1890,0,,,,,,,,,,,,,,,
2695994,1501038798534,,,,,,,,,0,1995,0,,,,,,,,,,,,,,,
2696004,1501038798544,3.18,,0.28,-0.06,0.79,-1,-8,2,0,1965,120,,,,,,,,,,,,,,,
2696014,1501038798554,,,,,,,,,0,1905,120,,,,,,,,,,,,,,,
2696024,1501038798564,,,,,,,,,0,1890,120,,,,,,,,,,,,,,,
2696034,1501038798574,,,,,,,,,0,1860,120,,,,,,,,,,,,,,,
2696044,1501038798584,3.18,4.49,0.3,-0.08,0.79,-2,-8,2,0,1770,120,36.11367,-115.145668,1.42,5.719,2040.4,9,3,1.8,0,0.0,-1,0.0,0.0,0.0,0
2696054,1501038798592,,,,,,,,,0,2070,120,,,,,,,,,,,,,,,
2696064,1501038798602,,,,,,,,,0,2055,120,,,,,,,,,,,,,,,
2696074,1501038798612,,,,,,,,,0,2010,120,,,,,,,,,,,,,,,
2696084,1501038798622,3.15,,0.3,-0.1,0.8,-1,-7,2,0,1980,120,,,,,,,,,,,,,,,
2696094,1501038798632,,,,,,,,,0,1935,120,,,,,,,,,,,,,,,
2696104,1501038798642,,,,,,,,,0,1860,120,,,,,,,,,,,,,,,
2696114,1501038798652,,,,,,,,,0,2145,120,,,,,,,,,,,,,,,
2696124,1501038798662,3.19,,0.28,-0.1,0.82,-1,-4,1,0,2130,120,,,,,,,,,,,,,,,
2696134,1501038798672,,,,,,,,,0,2085,120,,,,,,,,,,,,,,,
2696144,1501038798682,,,,,,,,,0,2055,210,36.11367,-115.145668,2.64,5.719,2040.6,9,3,1.8,0,0.0,-1,0.0,0.0,0.0,0
2696154,1501038798692,,,,,,,,,0,2025,210,,,,,,,,,,,,,,,
2696164,1501038798702,3.16,,0.31,-0.1,0.78,-1,-4,1,0,2160,210,,,,,,,,,,,,,,,
2696174,1501038798712,,,,,,,,,0,2205,210,,,,,,,,,,,,,,,
2696184,1501038798722,,,,,,,,,0,2175,210,,,,,,,,,,,,,,,
2696194,1501038798732,,,,,,,,,0,2145,210,,,,,,,,,,,,,,,
2696204,1501038798742,3.13,,0.32,-0.1,0.83,-0,-3,1,0,2115,210,,,,,,,,,,,,,,,
2696214,1501038798752,,,,,,,,,0,2040,210,,,,,,,,,,,,,,,
2696224,1501038798762,,,,,,,,,0,2295,210,,,,,,,,,,,,,,,
2696234,1501038798772,,,,,,,,,0,2280,210,,,,,,,,,,,,,,,
2696244,1501038798782,3.06,,0.31,-0.11,0.79,-1,-7,1,0,2235,10000000,36.11367,-115.145668,3.74,5.719,2040.6,9,3,1.8,0,0.0,-1,0.0,0.0,0.0,0
2696254,1501038798792,,,,,,,,,0,2220,360,,,,,,,,,,,,,,,
2696264,1501038798802,,,,,,,,,0,2115,360,,,,,,,,,,,,,,,
2696274,1501038798812,,,,,,,,,0,2325,360,,,,,,,,,,,,,,,
2696284,1501038798822,3.15,,0.36,-0.08,0.79,-1,-4,1,0,2355,360,,,,,,,,,,,,,,,
2696294,1501038798832,,,,,,,,,0,2340,360,,,,,,,,,,,,,,,
2696304,1501038798842,,,,,,,,,0,2295,360,,,,,,,,,,,,,,,
2696314,1501038798852,,,,,,,,,0,2280,360,,,,,,,,,,,,,,,
2696324,1501038798862,3.14,,0.39,-0.08,0.73,-1,-4,1,0,2400,360,,,,,,,,,,,,,,,
2696334,1501038798872,,,,,,,,,0,2430,360,,,,,,,,,,,,,,,
2696344,1501038798882,,,,,,,,,0,2430,360,36.11367,-115.145668,4.49,5.719,2040.6,9,3,1.8,0,0.0,-1,0.0,0.0,0.0,0
2696354,1501038798894,,,,,,,,,0,2385,650,,,,,,,,,,,,,,,
2696364,1501038798904,3.17,,0.36,-0.05,0.82,-1,-0,0,0,2355,650,,,,,,,,,,,,,,,
2696374,1501038798914,,,,,,,,,0,2460,650,,,,,,,,,,,,,,,
2696384,1501038798924,,,,,,,,,0,2505,650,,,,,,,,,,,,,,,
2696394,1501038798934,,,,,,,,,0,2475,650,,,,,,,,,,,,,,,
2696404,1501038798944,3.22,,0.39,-0.02,0.86,-3,-4,2,0,2430,650,,,,,,,,,,,,,,,
2696414,1501038798954,,,,,,,,,0,2370,650,,,,,,,,,,,,,,,
2696424,1501038798964,,,,,,,,,0,2520,650,,,,,,,,,,,,,,,
2696434,1501038798974,,,,,,,,,0,2550,650,,,,,,,,,,,,,,,
2696444,1501038798984,3.17,,0.42,-0.01,0.74,-3,-3,6,0,2520,2510,36.11367,-115.145676,5.18,5.719,2040.6,9,3,1.8,0,0.0,-1,0.0,0.0,0.0,0
2696454,1501038798994,,,,,,,,,0,2505,2510,,,,,,,,,,,,,,,
2696464,1501038798998,,,,,,,,,0,2415,2510,,,,,,,,,,,,,,,
2696474,1501038799008,,,,,,,,,0,2655,2510,,,,,,,,,,,,,,,
2696484,1501038799018,3.22,,0.41,-0.04,0.91,-3,-3,5,0,2625,2510,,,,,,,,,,,,,,,
2696494,1501038799028,,,,,,,,,0,2580,2510,,,,,,,,,,,,,,,
2696504,1501038799038,,,,,,,,,0,2535,2510,,,,,,,,,,,,,,,
2696514,1501038799048,,,,,,,,,0,2610,2510,,,,,,,,,,,,,,,
2696524,1501038799058,3.22,,0.45,-0.01,0.94,-4,-5,5,0,2685,120,,,,,,,,,,,,,,,
2696534,1501038799068,,,,,,,,,0,2625,120,,,,,,,,,,,,,,,
2696544,1501038799078,,,,,,,,,0,2595,120,36.11367,-115.145676,5.73,5.719,2040.6,9,3,1.8,0,0.0,-1,0.0,0.0,0.0,0
2696554,1501038799094,,,,,,,,,0,2520,120,,,,,,,,,,,,,,,
2696564,1501038799104,3.15,,0.38,-0.01,0.76,-3,-7,3,0,2655,120,,,,,,,,,,,,,,,
2696574,1501038799114,,,,,,,,,0,2700,120,,,,,,,,,,,,,,,
2696584,1501038799124,,,,,,,,,0,2655,120,,,,,,,,,,,,,,,
2696594,1501038799134,,,,,,,,,0,2610,120,,,,,,,,,,,,,,,
2696604,1501038799144,3.21,,0.38,0.01,0.78,-3,-3,1,0,2550,120,,,,,,,,,,,,,,,
2696614,1501038799154,,,,,,,,,0,2775,120,,,,,,,,,,,,,,,
2696624,1501038799164,,,,,,,,,0,2700,120,,,,,,,,,,,,,,,
2696634,1501038799174,,,,,,,,,0,2670,120,,,,,,,,,,,,,,,
2696644,1501038799184,3.15,,0.32,0.04,0.92,-3,-1,3,0,2580,120,36.11367,-115.145676,6.74,5.719,2040.7,9,3,1.8,0,0.0,-1,0.0,0.0,0.0,0
2696654,1501038799192,,,,,,,,,0,2700,120,,,,,,,,,,,,,,,
2696664,1501038799202,,,,,,,,,0,2745,120,,,,,,,,,,,,,,,
2696674,1501038799212,,,,,,,,,0,2700,130,,,,,,,,,,,,,,,
2696684,1501038799222,3.18,,0.39,0.03,1.02,-4,-3,8,0,2640,130,,,,,,,,,,,,,,,
2696694,1501038799232,,,,,,,,,0,2730,130,,,,,,,,,,,,,,,
2696704,1501038799242,,,,,,,,,0,2760,130,,,,,,,,,,,,,,,
2696714,1501038799252,,,,,,,,,0,2745,130,,,,,,,,,,,,,,,
2696724,1501038799262,3.18,,0.33,0.09,0.81,-4,-4,7,0,2715,130,,,,,,,,,,,,,,,
2696734,1501038799272,,,,,,,,,0,2625,130,,,,,,,,,,,,,,,
2696744,1501038799282,,,,,,,,,0,2835,140,36.11367,-115.145676,7.38,5.719,2040.6,9,3,1.8,0,0.0,-1,0.0,0.0,0.0,0
2696754,1501038799294,,,,,,,,,0,2745,140,,,,,,,,,,,,,,,
2696764,1501038799304,3.15,,0.3,0.12,0.6,-3,-5,6,0,2745,140,,,,,,,,,,,,,,,
2696774,1501038799314,,,,,,,,,0,2655,140,,,,,,,,,,,,,,,
2696784,1501038799324,,,,,,,,,0,2745,140,,,,,,,,,,,,,,,
2696794,1501038799334,,,,,,,,,0,2760,140,,,,,,,,,,,,,,,
2696804,1501038799344,3.1,,0.35,-0.03,0.57,-3,-5,6,0,2775,140,,,,,,,,,,,,,,,
2696814,1501038799354,,,,,,,,,0,2670,140,,,,,,,,,,,,,,,
2696824,1501038799364,,,,,,,,,0,2655,140,,,,,,,,,,,,,,,
2696834,1501038799374,,,,,,,,,0,2820,140,,,,,,,,,,,,,,,
2696844,1501038799384,3.13,,0.27,-0.05,0.69,-2,-2,2,0,2820,140,36.11367,-115.145691,8.14,5.72,2040.6,9,3,1.8,0,0.0,-1,0.0,0.0,0.0,0
2696854,1501038799393,,,,,,,,,0,2715,140,,,,,,,,,,,,,,,
2696864,1501038799403,,,,,,,,,0,2655,140,,,,,,,,,,,,,,,
2696874,1501038799413,,,,,,,,,0,2820,150,,,,,,,,,,,,,,,
2696884,1501038799423,3.07,,0.33,-0.02,0.94,-2,-1,0,0,2820,150,,,,,,,,,,,,,,,
2696894,1501038799433,,,,,,,,,0,2790,150,,,,,,,,,,,,,,,
2696904,1501038799443,,,,,,,,,0,2730,150,,,,,,,,,,,,,,,
2696914,1501038799453,,,,,,,,,0,2820,150,,,,,,,,,,,,,,,
2696924,1501038799463,3.12,,0.41,-0.06,0.96,-1,-2,1,0,2820,150,,,,,,,,,,,,,,,
2696934,1501038799473,,,,,,,,,0,2805,160,,,,,,,,,,,,,,,
2696944,1501038799483,,,,,,,,,0,2730,160,36.11367,-115.145691,8.73,5.72,2040.6,9,3,1.8,0,0.0,-1,0.0,0.0,0.0,0
2696954,1501038799493,,,,,,,,,0,2670,160,,,,,,,,,,,,,,,
2696964,1501038799503,3.18,,0.4,-0.03,0.83,-2,-3,2,0,2835,160,,,,,,,,,,,,,,,
2696974,1501038799513,,,,,,,,,0,2805,160,,,,,,,,,,,,,,,
2696984,1501038799523,,,,,,,,,0,2760,160,,,,,,,,,,,,,,,
2696994,1501038799533,,,,,,,,,0,2670,160,,,,,,,,,,,,,,,
2697004,1501038799543,3.15,,0.35,-0.1,0.64,-2,-7,6,0,2850,160,,,,,,,,,,,,,,,
2697014,1501038799553,,,,,,,,,0,2805,160,,,,,,,,,,,,,,,
2697024,1501038799563,,,,,,,,,0,2790,160,,,,,,,,,,,,,,,
2697034,1501038799573,,,,,,,,,0,2730,160,,,,,,,,,,,,,,,
2697044,1501038799583,3.07,4.49,0.4,-0.19,0.62,-1,-12,1,0,2805,160,36.11367,-115.145691,9.54,5.72,2040.5,9,3,1.8,0,0.0,-1,0.0,0.0,0.0,0
2697054,1501038799593,,,,,,,,,0,2835,170,,,,,,,,,,,,,,,
2697064,1501038799603,,,,,,,,,0,2790,170,,,,,,,,,,,,,,,
2697074,1501038799613,,,,,,,,,0,2730,170,,,,,,,,,,,,,,,
2697084,1501038799623,3.14,,0.42,-0.12,0.72,-3,-8,3,0,2820,170,,,,,,,,,,,,,,,
2697094,1501038799633,,,,,,,,,0,2820,170,,,,,,,,,,,,,,,
2697104,1501038799643,,,,,,,,,0,2835,180,,,,,,,,,,,,,,,
2697114,1501038799653,,,,,,,,,0,2745,180,,,,,,,,,,,,,,,
2697124,1501038799663,3.15,,0.31,-0.1,0.93,-2,-4,4,0,2700,180,,,,,,,,,,,,,,,
2697134,1501038799673,,,,,,,,,0,2850,180,,,,,,,,,,,,,,,
2697144,1501038799683,,,,,,,,,0,2820,180,36.11367,-115.145706,9.76,5.72,2040.7,9,3,1.8,0,0.0,-1,0.0,0.0,0.0,0
2697154,1501038799691,,,,,,,,,0,2745,180,,,,,,,,,,,,,,,
2697164,1501038799701,3.09,,0.33,-0.06,1.14,-1,-3,-0,0,2685,180,,,,,,,,,,,,,,,
2697174,1501038799711,,,,,,,,,0,2820,180,,,,,,,,,,,,,,,
2697184,1501038799721,,,,,,,,,0,2835,180,,,,,,,,,,,,,,,
2697194,1501038799731,,,,,,,,,0,2820,180,,,,,,,,,,,,,,,
2697204,1501038799741,3.1,,0.32,-0.03,1.13,-3,-0,2,0,2745,180,,,,,,,,,,,,,,,
2697214,1501038799751,,,,,,,,,0,2820,190,,,,,,,,,,,,,,,
2697224,1501038799761,,,,,,,,,0,2850,190,,,,,,,,,,,,,,,
2697234,1501038799771,,,,,,,,,0,2805,190,,,,,,,,,,,,,,,
2697244,1501038799781,3.17,,0.29,0.02,0.94,-3,-2,2,0,2775,190,36.11367,-115.145706,10.27,5.721,2040.8,9,3,1.8,0,0.0,-1,0.0,0.0,0.0,0
2697254,1501038799791,,,,,,,,,0,2685,190,,,,,,,,,,,,,,,
2697264,1501038799801,,,,,,,,,0,2880,190,,,,,,,,,,,,,,,
2697274,1501038799811,,,,,,,,,0,2835,190,,,,,,,,,,,,,,,
2697284,1501038799821,3.18,,0.25,0.01,0.74,-2,-5,4,0,2790,190,,,,,,,,,,,,,,,
2697294,1501038799831,,,,,,,,,0,2700,190,,,,,,,,,,,,,,,
2697304,1501038799841,,,,,,,,,0,2880,190,,,,,,,,,,,,,,,
2697314,1501038799851,,,,,,,,,0,2835,190,,,,,,,,,,,,,,,
2697324,1501038799861,3.2,,0.28,0.0,0.58,-2,-7,6,0,2805,190,,,,,,,,,,,,,,,
2697334,1501038799871,,,,,,,,,0,2745,190,,,,,,,,,,,,,,,
2697344,1501038799881,,,,,,,,,0,2835,190,36.11367,-115.145714,10.81,5.721,2040.9,9,3,1.8,0,0.0,-1,0.0,0.0,0.0,0
2697354,1501038799891,,,,,,,,,0,2835,190,,,,,,,,,,,,,,,
2697364,1501038799901,3.2,,0.31,-0.09,0.56,-3,-8,6,0,2820,190,,,,,,,,,,,,,,,
2697374,1501038799911,,,,,,,,,0,2745,190,,,,,,,,,,,,,,,
2697384,1501038799921,,,,,,,,,0,2835,190,,,,,,,,,,,,,,,
2697394,1501038799931,,,,,,,,,0,2835,190,,,,,,,,,,,,,,,
2697404,1501038799941,3.12,,0.28,-0.14,0.64,-2,-5,7,0,2820,190,,,,,,,,,,,,,,,
2697414,1501038799951,,,,,,,,,0,2760,200,,,,,,,,,,,,,,,
2697424,1501038799961,,,,,,,,,0,2700,200,,,,,,,,,,,,,,,
2697434,1501038799971,,,,,,,,,0,2865,200,,,,,,,,,,,,,,,
2697444,1501038799981,3.15,,0.26,-0.05,0.9,-1,-2,4,0,2835,200,36.11367,-115.145714,11.36,5.721,2040.9,9,3,1.8,0,0.0,-1,0.0,0.0,0.0,0
2697454,1501038799991,,,,,,,,,0,2760,200,,,,,,,,,,,,,,,
2697464,1501038799995,,,,,,,,,0,2700,200,,,,,,,,,,,,,,,
2697474,1501038800005,,,,,,,,,0,2850,200,,,,,,,,,,,,,,,
2697484,1501038800015,3.16,,0.25,-0.05,1.06,-2,2,5,0,2850,200,,,,,,,,,,,,,,,
2697494,1501038800025,,,,,,,,,0,2805,200,,,,,,,,,,,,,,,
2697504,1501038800035,,,,,,,,,0,2745,200,,,,,,,,,,,,,,,
2697514,1501038800045,,,,,,,,,0,2850,210,,,,,,,,,,,,,,,
2697524,1501038800055,3.2,,0.29,-0.05,1.03,-3,1,4,0,2880,210,,,,,,,,,,,,,,,
2697534,1501038800065,,,,,,,,,0,2805,210,,,,,,,,,,,,,,,
2697544,1501038800075,,,,,,,,,0,2745,210,36.11367,-115.145714,12.07,5.722,2040.9,9,3,1.8,0,0.0,-1,0.0,0.0,0.0,0
2697554,1501038800091,,,,,,,,,0,2685,220,,,,,,,,,,,,,,,
2697564,1501038800101,3.2,,0.25,0.04,0.92,-4,-3,3,0,2880,220,,,,,,,,,,,,,,,
2697574,1501038800111,,,,,,,,,0,2835,220,,,,,,,,,,,,,,,
2697584,1501038800121,,,,,,,,,0,2775,220,,,,,,,,,,,,,,,
2697594,1501038800131,,,,,,,,,0,2685,220,,,,,,,,,,,,,,,
2697604,1501038800141,3.15,,0.21,0.03,0.81,-4,-5,6,0,2880,220,,,,,,,,,,,,,,,
2697614,1501038800151,,,,,,,,,0,2820,220,,,,,,,,,,,,,,,
2697624,1501038800161,,,,,,,,,0,2745,220,,,,,,,,,,,,,,,
2697634,1501038800171,,,,,,,,,0,2745,220,,,,,,,,,,,,,,,
2697644,1501038800181,3.15,,0.28,-0.07,0.63,-3,-8,4,0,2820,220,36.11367,-115.145729,12.04,5.722,2041.1,9,3,1.8,0,0.0,-1,0.0,0.0,0.0,0
2697654,1501038800191,,,,,,,,,0,2850,220,,,,,,,,,,,,,,,
2697664,1501038800201,,,,,,,,,0,2820,220,,,,,,,,,,,,,,,
2697674,1501038800211,,,,,,,,,0,2730,220,,,,,,,,,,,,,,,
2697684,1501038800221,3.14,,0.31,-0.07,0.59,-4,-4,7,0,2820,220,,,,,,,,,,,,,,,
2697694,1501038800231,,,,,,,,,0,2835,220,,,,,,,,,,,,,,,
2697704,1501038800241,,,,,,,,,0,2820,220,,,,,,,,,,,,,,,
2697714,1501038800251,,,,,,,,,0,2745,220,,,,,,,,,,,,,,,
2697724,1501038800261,3.11,,0.28,-0.09,0.85,-3,-0,6,0,2700,220,,,,,,,,,,,,,,,
2697734,1501038800271,,,,,,,,,0,2850,220,,,,,,,,,,,,,,,
2697744,1501038800281,,,,,,,,,0,2820,220,36.11367,-115.145729,12.81,5.722,2041.2,9,3,1.8,0,0.0,-1,0.0,0.0,0.0,0
2697754,1501038800291,,,,,,,,,0,2760,220,,,,,,,,,,,,,,,
2697764,1501038800301,3.12,,0.23,-0.04,1.07,-1,2,3,0,2685,220,,,,,,,,,,,,,,,
2697774,1501038800311,,,,,,,,,0,2850,230,,,,,,,,,,,,,,,
2697784,1501038800321,,,,,,,,,0,2835,230,,,,,,,,,,,,,,,
2697794,1501038800331,,,,,,,,,0,2805,230,,,,,,,,,,,,,,,
2697804,1501038800341,3.16,,0.23,-0.07,1.15,-3,3,3,0,2730,230,,,,,,,,,,,,,,,
2697814,1501038800351,,,,,,,,,0,2835,230,,,,,,,,,,,,,,,
2697824,1501038800361,,,,,,,,,0,2835,230,,,,,,,,,,,,,,,
2697834,1501038800371,,,,,,,,,0,2790,230,,,,,,,,,,,,,,,
2697844,1501038800381,3.15,,0.2,-0.03,0.95,-4,-1,2,0,2715,230,36.11367,-115.145744,13.13,5.723,2041.3,9,3,1.8,0,0.0,-1,0.0,0.0,0.0,0
2697854,1501038800391,,,,,,,,,0,2685,230,,,,,,,,,,,,,,,
2697864,1501038800400,,,,,,,,,0,2835,230,,,,,,,,,,,,,,,
2697874,1501038800410,,,,,,,,,0,2790,230,,,,,,,,,,,,,,,
2697884,1501038800420,3.19,,0.19,-0.04,0.78,-3,-5,3,0,2730,230,,,,,,,,,,,,,,,
2697894,1501038800430,,,,,,,,,0,2670,230,,,,,,,,,,,,,,,
2697904,1501038800440,,,,,,,,,0,2850,230,,,,,,,,,,,,,,,
2697914,1501038800450,,,,,,,,,0,2805,230,,,,,,,,,,,,,,,
2697924,1501038800460,3.21,,0.29,-0.12,0.7,-3,-11,2,0,2790,230,,,,,,,,,,,,,,,
2697934,1501038800470,,,,,,,,,0,2730,230,,,,,,,,,,,,,,,
2697944,1501038800480,,,,,,,,,0,2805,240,36.11367,-115.145744,13.87,5.723,2041.3,9,3,1.8,0,0.0,-1,0.0,0.0,0.0,0
2697954,1501038800490,,,,,,,,,0,2835,240,,,,,,,,,,,,,,,
2697964,1501038800500,3.2,,0.33,-0.17,0.64,-3,-9,5,0,2790,240,,,,,,,,,,,,,,,
2697974,1501038800510,,,,,,,,,0,2730,240,,,,,,,,,,,,,,,
2697984,1501038800520,,,,,,,,,0,2820,240,,,,,,,,,,,,,,,
2697994,1501038800530,,,,,,,,,0,2850,240,,,,,,,,,,,,,,,
2698004,1501038800540,3.16,,0.3,-0.14,0.82,-2,-3,6,0,2805,240,,,,,,,,,,,,,,,
2698014,1501038800550,,,,,,,,,0,2760,240,,,,,,,,,,,,,,,
2698024,1501038800560,,,,,,,,,0,2670,250,,,,,,,,,,,,,,,
2698034,1501038800570,,,,,,,,,0,2835,250,,,,,,,,,,,,,,,
2698044,1501038800580,3.16,4.5,0.27,-0.06,1.04,-1,-2,2,0,2805,250,36.11367,-115.145752,14.4,5.723,2041.3,9,3,1.8,0,0.0,-1,0.0,0.0,0.0,0
2698054,1501038800592,,,,,,,,,0,2730,250,,,,,,,,,,,,,,,
2698064,1501038800602,,,,,,,,,0,2715,250,,,,,,,,,,,,,,,
2698074,1501038800612,,,,,,,,,0,2820,250,,,,,,,,,,,,,,,
2698084,1501038800622,3.18,,0.23,-0.02,1.21,-2,-1,1,0,2835,250,,,,,,,,,,,,,,,
2698094,1501038800632,,,,,,,,,0,2790,250,,,,,,,,,,,,,,,
2698104,1501038800642,,,,,,,,,0,2715,250,,,,,,,,,,,,,,,
2698114,1501038800652,,,,,,,,,0,2820,250,,,,,,,,,,,,,,,
2698124,1501038800662,3.19,,0.25,-0.03,1.12,-2,-3,-0,0,2835,250,,,,,,,,,,,,,,,
2698134,1501038800672,,,,,,,,,0,2790,250,,,,,,,,,,,,,,,
2698144,1501038800682,,,,,,,,,0,2760,250,36.11367,-115.145767,14.88,5.724,2041.6,9,3,1.8,0,0.0,-1,0.0,0.0,0.0,0
2698154,1501038800692,,,,,,,,,0,2670,250,,,,,,,,,,,,,,,
2698164,1501038800702,3.2,,0.23,-0.0,0.97,-3,-8,0,0,2820,250,,,,,,,,,,,,,,,
2698174,1501038800712,,,,,,,,,0,2775,250,,,,,,,,,,,,,,,
2698184,1501038800722,,,,,,,,,0,2745,250,,,,,,,,,,,,,,,
2698194,1501038800732,,,,,,,,,0,2655,250,,,,,,,,,,,,,,,
2698204,1501038800742,3.17,,0.26,-0.07,0.76,-2,-10,0,0,2820,250,,,,,,,,,,,,,,,
2698214,1501038800752,,,,,,,,,0,2820,250,,,,,,,,,,,,,,,
2698224,1501038800762,,,,,,,,,0,2775,250,,,,,,,,,,,,,,,
2698234,1501038800772,,,,,,,,,0,2730,250,,,,,,,,,,,,,,,
2698244,1501038800782,3.18,,0.31,-0.1,0.65,-2,-9,1,0,2790,250,36.11367,-115.145767,15.18,5.724,2041.8,9,3,1.8,0,0.0,-1,0.0,0.0,0.0,0
2698254,1501038800792,,,,,,,,,0,2820,260,,,,,,,,,,,,,,,
2698264,1501038800800,,,,,,,,,0,2775,260,,,,,,,,,,,,,,,
2698274,1501038800810,,,,,,,,,0,2760,260,,,,,,,,,,,,,,,
2698284,1501038800820,3.17,,0.26,-0.1,0.74,-2,-4,3,0,2670,260,,,,,,,,,,,,,,,
2698294,1501038800830,,,,,,,,,0,2880,260,,,,,,,,,,,,,,,
2698304,1501038800840,,,,,,,,,0,2805,260,,,,,,,,,,,,,,,
2698314,1501038800850,,,,,,,,,0,2760,260,,,,,,,,,,,,,,,
2698324,1501038800860,3.08,,0.28,-0.05,0.88,-1,-2,0,0,2670,260,,,,,,,,,,,,,,,
2698334,1501038800870,,,,,,,,,0,2805,260,,,,,,,,,,,,,,,
2698344,1501038800880,,,,,,,,,0,2820,260,36.11367,-115.145782,15.68,5.725,2041.8,9,3,1.8,0,0.0,-1,0.0,0.0,0.0,0
2698354,1501038800890,,,,,,,,,0,2775,260,,,,,,,,,,,,,,,
2698364,1501038800900,3.08,,0.27,-0.02,1.04,-2,-1,1,0,2715,260,,,,,,,,,,,,,,,
2698374,1501038800910,,,,,,,,,0,2805,260,,,,,,,,,,,,,,,
2698384,1501038800920,,,,,,,,,0,2805,260,,,,,,,,,,,,,,,
2698394,1501038800930,,,,,,,,,0,2790,260,,,,,,,,,,,,,,,
2698404,1501038800940,3.14,,0.26,-0.01,0.94,-3,-4,2,0,2715,270,,,,,,,,,,,,,,,
2698414,1501038800950,,,,,,,,,0,2655,270,,,,,,,,,,,,,,,
2698424,1501038800960,,,,,,,,,0,2820,270,,,,,,,,,,,,,,,
2698434,1501038800970,,,,,,,,,0,2790,270,,,,,,,,,,,,,,,
2698444,1501038800980,3.19,,0.21,0.03,0.81,-2,-7,4,0,2730,270,36.113667,-115.145782,15.7,5.725,2041.8,9,3,1.8,0,0.0,-1,0.0,0.0,0.0,0
2698454,1501038800990,,,,,,,,,0,2670,270,,,,,,,,,,,,,,,
2698464,1501038800994,,,,,,,,,0,2820,270,,,,,,,,,,,,,,,
2698474,1501038801004,,,,,,,,,0,2835,270,,,,,,,,,,,,,,,
2698484,1501038801014,3.19,,0.26,-0.11,0.59,-3,-9,4,0,2775,270,,,,,,,,,,,,,,,
2698494,1501038801024,,,,,,,,,0,2715,270,,,,,,,,,,,,,,,
2698504,1501038801034,,,,,,,,,0,2805,270,,,,,,,,,,,,,,,
2698514,1501038801044,,,,,,,,,0,2835,280,,,,,,,,,,,,,,,
2698524,1501038801054,3.13,,0.28,-0.16,0.6,-3,-5,6,0,2775,280,,,,,,,,,,,,,,,
2698534,1501038801064,,,,,,,,,0,2745,280,,,,,,,,,,,,,,,
2698544,1501038801074,,,,,,,,,0,2655,280,36.113667,-115.14579,16.29,5.726,2041.8,9,3,1.8,0,0.0,-1,0.0,0.0,0.0,0
2698554,1501038801092,,,,,,,,,0,2865,270,,,,,,,,,,,,,,,
2698564,1501038801102,3.1,,0.26,-0.05,0.75,-2,-0,6,0,2805,270,,,,,,,,,,,,,,,
2698574,1501038801112,,,,,,,,,0,2760,270,,,,,,,,,,,,,,,
2698584,1501038801122,,,,,,,,,0,2655,270,,,,,,,,,,,,,,,
2698594,1501038801132,,,,,,,,,0,2865,270,,,,,,,,,,,,,,,
2698604,1501038801142,3.12,,0.2,-0.07,0.97,-1,1,4,0,2820,270,,,,,,,,,,,,,,,
2698614,1501038801152,,,,,,,,,0,2775,270,,,,,,,,,,,,,,,
2698624,1501038801162,,,,,,,,,0,2715,280,,,,,,,,,,,,,,,
2698634,1501038801172,,,,,,,,,0,2805,280,,,,,,,,,,,,,,,
2698644,1501038801182,3.15,,0.18,-0.05,1.09,-2,1,2,0,2835,280,36.113667,-115.145805,16.59,5.726,2041.8,9,3,1.8,0,0.0,-1,0.0,0.0,0.0,0
2698654,1501038801192,,,,,,,,,0,2790,280,,,,,,,,,,,,,,,
2698664,1501038801198,,,,,,,,,0,2730,280,,,,,,,,,,,,,,,
2698674,1501038801208,,,,,,,,,0,2670,280,,,,,,,,,,,,,,,
2698684,1501038801218,3.14,,0.16,-0.03,0.96,-3,-3,2,0,2865,280,,,,,,,,,,,,,,,
2698694,1501038801228,,,,,,,,,0,2805,280,,,,,,,,,,,,,,,
2698704,1501038801238,,,,,,,,,0,2775,280,,,,,,,,,,,,,,,
2698714,1501038801248,,,,,,,,,0,2685,280,,,,,,,,,,,,,,,
2698724,1501038801258,3.16,,0.19,-0.05,0.74,-4,-8,6,0,2850,290,,,,,,,,,,,,,,,
2698734,1501038801268,,,,,,,,,0,2820,290,,,,,,,,,,,,,,,
2698744,1501038801278,,,,,,,,,0,2775,290,36.113667,-115.145805,17.09,5.727,2041.9,9,3,1.8,0,0.0,-1,0.0,0.0,0.0,0
2698754,1501038801294,,,,,,,,,0,2760,290,,,,,,,,,,,,,,,
2698764,1501038801304,3.14,,0.27,-0.11,0.66,-4,-10,7,0,2820,280,,,,,,,,,,,,,,,
2698774,1501038801314,,,,,,,,,0,2850,280,,,,,,,,,,,,,,,
2698784,1501038801324,,,,,,,,,0,2805,280,,,,,,,,,,,,,,,
2698794,1501038801334,,,,,,,,,0,2745,280,,,,,,,,,,,,,,,
2698804,1501038801344,3.17,,0.33,-0.1,0.65,-4,-7,9,0,2835,280,,,,,,,,,,,,,,,
2698814,1501038801354,,,,,,,,,0,2865,280,,,,,,,,,,,,,,,
2698824,1501038801364,,,,,,,,,0,2820,280,,,,,,,,,,,,,,,
2698834,1501038801374,,,,,,,,,0,2775,290,,,,,,,,,,,,,,,
2698844,1501038801384,3.21,,0.22,-0.1,0.88,-3,-1,12,0,2700,290,36.113667,-115.145821,17.46,5.727,2041.9,9,3,1.8,0,0.0,-1,0.0,0.0,0.0,0
2698854,1501038801393,,,,,,,,,0,2895,290,,,,,,,,,,,,,,,
2698864,1501038801403,,,,,,,,,0,2835,290,,,,,,,,,,,,,,,
2698874,1501038801413,,,,,,,,,0,2775,290,,,,,,,,,,,,,,,
2698884,1501038801423,3.18,,0.19,-0.08,1.01,-2,2,7,0,2700,290,,,,,,,,,,,,,,,
2698894,1501038801433,,,,,,,,,0,2880,290,,,,,,,,,,,,,,,
2698904,1501038801443,,,,,,,,,0,2835,290,,,,,,,,,,,,,,,
2698914,1501038801453,,,,,,,,,0,2835,290,,,,,,,,,,,,,,,
2698924,1501038801463,3.12,,0.15,-0.12,1.15,-2,5,4,0,2790,290,,,,,,,,,,,,,,,
2698934,1501038801473,,,,,,,,,0,2865,300,,,,,,,,,,,,,,,
2698944,1501038801483,,,,,,,,,0,2865,300,36.113667,-115.145828,17.64,5.727,2041.7,9,3,1.8,0,0.0,-1,0.0,0.0,0.0,0
2698954,1501038801493,,,,,,,,,0,2835,300,,,,,,,,,,,,,,,
2698964,1501038801503,3.16,,0.14,-0.09,1.14,-4,3,3,0,2775,290,,,,,,,,,,,,,,,
2698974,1501038801513,,,,,,,,,0,2835,290,,,,,,,,,,,,,,,
2698984,1501038801523,,,,,,,,,0,2880,290,,,,,,,,,,,,,,,
2698994,1501038801533,,,,,,,,,0,2850,290,,,,,,,,,,,,,,,
2699004,1501038801543,3.19,,0.11,-0.06,0.93,-4,-1,3,0,2790,290,,,,,,,,,,,,,,,
2699014,1501038801553,,,,,,,,,0,2715,290,,,,,,,,,,,,,,,
2699024,1501038801563,,,,,,,,,0,2865,290,,,,,,,,,,,,,,,
2699034,1501038801573,,,,,,,,,0,2835,300,,,,,,,,,,,,,,,
2699044,1501038801583,3.19,4.5,0.14,-0.08,0.69,-3,-5,5,0,2775,300,36.113667,-115.145828,18.1,5.728,2041.6,9,3,1.8,0,0.0,-1,0.0,0.0,0.0,0
2699054,1501038801593,,,,,,,,,0,2715,300,,,,,,,,,,,,,,,
2699064,1501038801603,,,,,,,,,0,2880,300,,,,,,,,,,,,,,,
2699074,1501038801613,,,,,,,,,0,2835,300,,,,,,,,,,,,,,,
2699084,1501038801623,3.18,,0.25,-0.12,0.48,-4,-10,6,0,2835,300,,,,,,,,,,,,,,,
2699094,1501038801633,,,,,,,,,0,2790,300,,,,,,,,,,,,,,,
2699104,1501038801643,,,,,,,,,0,2850,300,,,,,,,,,,,,,,,
2699114,1501038801653,,,,,,,,,0,2895,300,,,,,,,,,,,,,,,
2699124,1501038801663,3.14,,0.31,-0.11,0.46,-4,-11,9,0,2850,300,,,,,,,,,,,,,,,
2699134,1501038801673,,,,,,,,,0,2775,300,,,,,,,,,,,,,,,
2699144,1501038801683,,,,,,,,,0,2865,300,36.113667,-115.145844,18.38,5.728,2041.4,9,3,1.8,0,0.0,-1,0.0,0.0,0.0,0
2699154,1501038801693,,,,,,,,,0,2880,300,,,,,,,,,,,,,,,
2699164,1501038801703,3.15,,0.28,-0.07,0.52,-3,-8,10,0,2835,300,,,,,,,,,,,,,,,
2699174,1501038801713,,,,,,,,,0,2775,300,,,,,,,,,,,,,,,
2699184,1501038801723,,,,,,,,,0,2730,300,,,,,,,,,,,,,,,
2699194,1501038801733,,,,,,,,,0,2880,300,,,,,,,,,,,,,,,
2699204,1501038801743,3.11,,0.22,-0.02,0.69,-2,-2,9,0,2865,300,,,,,,,,,,,,,,,
2699214,1501038801753,,,,,,,,,0,2790,300,,,,,,,,,,,,,,,
2699224,1501038801763,,,,,,,,,0,2730,300,,,,,,,,,,,,,,,
2699234,1501038801773,,,,,,,,,0,2895,300,,,,,,,,,,,,,,,
2699244,1501038801783,3.1,,0.13,-0.04,0.94,-1,3,7,0,2850,300,36.113667,-115.145859,18.74,5.729,2041.3,9,3,1.8,0,0.0,-1,0.0,0.0,0.0,0
2699254,1501038801793,,,,,,,,,0,2820,300,,,,,,,,,,,,,,,
2699264,1501038801803,,,,,,,,,0,2715,300,,,,,,,,,,,,,,,
2699274,1501038801813,,,,,,,,,0,2865,300,,,,,,,,,,,,,,,
2699284,1501038801823,3.08,,0.1,-0.05,1.08,-2,7,6,0,2895,300,,,,,,,,,,,,,,,
2699294,1501038801833,,,,,,,,,0,2835,310,,,,,,,,,,,,,,,
2699304,1501038801843,,,,,,,,,0,2790,310,,,,,,,,,,,,,,,
2699314,1501038801853,,,,,,,,,0,2865,310,,,,,,,,,,,,,,,
2699324,1501038801863,3.19,,0.13,-0.05,1.11,-3,6,5,0,2895,310,,,,,,,,,,,,,,,
2699334,1501038801873,,,,,,,,,0,2865,310,,,,,,,,,,,,,,,
2699344,1501038801883,,,,,,,,,0,2790,310,36.113667,-115.145866,18.84,5.73,2041.1,9,3,1.8,0,0.0,-1,0.0,0.0,0.0,0
2699354,1501038801891,,,,,,,,,0,2880,310,,,,,,,,,,,,,,,
2699364,1501038801901,3.16,,0.1,-0.02,0.97,-3,3,4,0,2895,310,,,,,,,,,,,,,,,
2699374,1501038801911,,,,,,,,,0,2850,310,,,,,,,,,,,,,,,
2699384,1501038801921,,,,,,,,,0,2820,310,,,,,,,,,,,,,,,
2699394,1501038801931,,,,,,,,,0,2730,310,,,,,,,,,,,,,,,
2699404,1501038801941,3.17,,0.1,-0.1,0.82,-3,-3,6,0,2910,310,,,,,,,,,,,,,,,
2699414,1501038801951,,,,,,,,,0,2865,310,,,,,,,,,,,,,,,
2699424,1501038801961,,,,,,,,,0,2820,310,,,,,,,,,,,,,,,
2699434,1501038801971,,,,,,,,,0,2745,310,,,,,,,,,,,,,,,
2699444,1501038801981,3.12,,0.18,-0.14,0.67,-3,-8,8,0,2925,310,36.113663,-115.145866,19.66,5.73,2041.2,9,3,1.8,0,0.0,-1,0.0,0.0,0.0,0
2699454,1501038801991,,,,,,,,,0,2880,310,,,,,,,,,,,,,,,
2699464,1501038801997,,,,,,,,,0,2835,310,,,,,,,,,,,,,,,
2699474,1501038802007,,,,,,,,,0,2820,310,,,,,,,,,,,,,,,
2699484,1501038802017,3.16,,0.23,-0.1,0.59,-3,-13,5,0,2895,310,,,,,,,,,,,,,,,
2699494,1501038802027,,,,,,,,,0,2925,310,,,,,,,,,,,,,,,
2699504,1501038802037,,,,,,,,,0,2880,310,,,,,,,,,,,,,,,
2699514,1501038802047,,,,,,,,,0,2820,320,,,,,,,,,,,,,,,
2699524,1501038802057,3.15,,0.27,-0.02,0.64,-2,-11,6,0,2925,320,,,,,,,,,,,,,,,
2699534,1501038802067,,,,,,,,,0,2925,320,,,,,,,,,,,,,,,
2699544,1501038802077,,,,,,,,,0,2895,320,36.113663,-115.145882,19.42,5.731,2041.1,9,3,1.8,0,0.0,-1,0.0,0.0,0.0,0
2699554,1501038802093,,,,,,,,,0,2835,320,,,,,,,,,,,,,,,
2699564,1501038802103,3.15,,0.28,0.06,0.59,-2,-8,5,0,2895,320,,,,,,,,,,,,,,,
2699574,1501038802113,,,,,,,,,0,2925,310,,,,,,,,,,,,,,,
2699584,1501038802123,,,,,,,,,0,2880,310,,,,,,,,,,,,,,,
2699594,1501038802133,,,,,,,,,0,2805,310,,,,,,,,,,,,,,,
2699604,1501038802143,3.09,,0.22,0.12,0.78,-2,-3,5,0,2775,310,,,,,,,,,,,,,,,
2699614,1501038802153,,,,,,,,,0,2925,320,,,,,,,,,,,,,,,
2699624,1501038802163,,,,,,,,,0,2910,320,,,,,,,,,,,,,,,
2699634,1501038802173,,,,,,,,,0,2835,320,,,,,,,,,,,,,,,
2699644,1501038802183,3.14,,0.13,0.06,0.98,-0,3,3,0,2775,320,36.113663,-115.145897,19.57,5.731,2040.9,9,3,1.8,0,0.0,-1,0.0,0.0,0.0,0
2699654,1501038802193,,,,,,,,,0,2940,320,,,,,,,,,,,,,,,
2699664,1501038802203,,,,,,,,,0,2895,320,,,,,,,,,,,,,,,
2699674,1501038802213,,,,,,,,,0,2880,330,,,,,,,,,,,,,,,
2699684,1501038802223,3.11,,0.08,-0.0,1.17,-0,7,1,0,2775,330,,,,,,,,,,,,,,,
2699694,1501038802233,,,,,,,,,0,2955,330,,,,,,,,,,,,,,,
2699704,1501038802243,,,,,,,,,0,2910,330,,,,,,,,,,,,,,,
2699714,1501038802253,,,,,,,,,0,2850,330,,,,,,,,,,,,,,,
2699724,1501038802263,3.09,,0.04,-0.05,1.21,-0,9,-0,0,2760,330,,,,,,,,,,,,,,,
2699734,1501038802273,,,,,,,,,0,2895,320,,,,,,,,,,,,,,,
2699744,1501038802283,,,,,,,,,0,2910,320,36.113663,-115.145912,19.95,5.732,2040.8,9,3,1.8,0,0.0,-1,0.0,0.0,0.0,0
2699754,1501038802293,,,,,,,,,0,2865,320,,,,,,,,,,,,,,,
2699764,1501038802303,3.15,,0.05,-0.09,1.28,-2,9,1,0,2805,320,,,,,,,,,,,,,,,
2699774,1501038802313,,,,,,,,,0,2895,320,,,,,,,,,,,,,,,
2699784,1501038802323,,,,,,,,,0,2910,320,,,,,,,,,,,,,,,
2699794,1501038802333,,,,,,,,,0,2865,330,,,,,,,,,,,,,,,
2699804,1501038802343,3.21,,0.08,-0.09,1.24,-3,6,0,0,2805,330,,,,,,,,,,,,,,,
2699814,1501038802353,,,,,,,,,0,2880,330,,,,,,,,,,,,,,,
2699824,1501038802363,,,,,,,,,0,2910,320,,,,,,,,,,,,,,,
2699834,1501038802373,,,,,,,,,0,2865,320,,,,,,,,,,,,,,,
2699844,1501038802383,3.17,,0.08,-0.05,1.0,-2,2,1,0,2850,320,36.113663,-115.14592,20.39,5.732,2040.7,9,3,1.8,0,0.0,-1,0.0,0.0,0.0,0
2699854,1501038802392,,,,,,,,,0,2775,330,,,,,,,,,,,,,,,
2699864,1501038802402,,,,,,,,,0,2925,330,,,,,,,,,,,,,,,
2699874,1501038802412,,,,,,,,,0,2895,330,,,,,,,,,,,,,,,
2699884,1501038802422,3.22,,0.05,-0.06,0.78,-1,-5,2,0,2835,340,,,,,,,,,,,,,,,
2699894,1501038802432,,,,,,,,,0,2775,340,,,,,,,,,,,,,,,
2699904,1501038802442,,,,,,,,,0,2955,340,,,,,,,,,,,,,,,
2699914,1501038802452,,,,,,,,,0,2910,330,,,,,,,,,,,,,,,
2699924,1501038802462,3.24,,0.1,-0.1,0.63,-1,-12,2,0,2865,330,,,,,,,,,,,,,,,
2699934,1501038802472,,,,,,,,,0,2790,330,,,,,,,,,,,,,,,
2699944,1501038802482,,,,,,,,,0,2955,330,36.113663,-115.14592,20.79,5.733,2040.9,9,3,1.8,0,0.0,-1,0.0,0.0,0.0,0
2699954,1501038802492,,,,,,,,,0,2925,330,,,,,,,,,,,,,,,
2699964,1501038802502,3.15,,0.19,-0.15,0.59,-2,-17,3,0,2835,330,,,,,,,,,,,,,,,
2699974,1501038802512,,,,,,,,,0,2850,330,,,,,,,,,,,,,,,
2699984,1501038802522,,,,,,,,,0,2925,330,,,,,,,,,,,,,,,
2699994,1501038802532,,,,,,,,,0,2940,330,,,,,,,,,,,,,,,
2700004,1501038802542,3.17,,0.27,-0.1,0.54,-3,-17,7,0,2910,330,,,,,,,,,,,,,,,
2700014,1501038802552,,,,,,,,,0,2850,330,,,,,,,,,,,,,,,
2700024,1501038802562,,,,,,,,,0,2955,330,,,,,,,,,,,,,,,
2700034,1501038802572,,,,,,,,,0,2955,340,,,,,,,,,,,,,,,
2700044,1501038802582,3.22,4.5,0.35,-0.04,0.6,-3,-16,8,0,2955,340,36.113663,-115.145935,21.18,5.733,2040.9,9,3,1.8,0,0.0,-1,0.0,0.0,0.0,0
2700054,1501038802592,,,,,,,,,0,2880,340,,,,,,,,,,,,,,,
2700064,1501038802602,,,,,,,,,0,2955,340,,,,,,,,,,,,,,,
2700074,1501038802612,,,,,,,,,0,2985,340,,,,,,,,,,,,,,,
2700084,1501038802622,3.15,,0.36,0.01,0.62,-2,-15,7,0,2940,340,,,,,,,,,,,,,,,
2700094,1501038802632,,,,,,,,,0,2865,340,,,,,,,,,,,,,,,
2700104,1501038802642,,,,,,,,,0,2985,340,,,,,,,,,,,,,,,
2700114,1501038802652,,,,,,,,,0,2985,330,,,,,,,,,,,,,,,
2700124,1501038802662,3.12,,0.33,0.09,0.59,-1,-13,5,0,2955,330,,,,,,,,,,,,,,,
2700134,1501038802672,,,,,,,,,0,2880,330,,,,,,,,,,,,,,,
2700144,1501038802682,,,,,,,,,0,2985,340,36.113663,-115.14595,21.27,5.734,2040.8,9,3,1.8,0,0.0,-1,0.0,0.0,0.0,0
2700154,1501038802692,,,,,,,,,0,2985,340,,,,,,,,,,,,,,,
2700164,1501038802702,3.16,,0.26,0.12,0.69,-1,-6,3,0,2955,340,,,,,,,,,,,,,,,
2700174,1501038802712,,,,,,,,,0,2880,330,,,,,,,,,,,,,,,
2700184,1501038802722,,,,,,,,,0,2850,330,,,,,,,,,,,,,,,
2700194,1501038802732,,,,,,,,,0,2850,330,,,,,,,,,,,,,,,
2700204,1501038802742,3.12,,0.18,0.12,0.85,-0,-0,2,0,2820,330,,,,,,,,,,,,,,,
2700214,1501038802752,,,,,,,,,0,2775,330,,,,,,,,,,,,,,,
2700224,1501038802762,,,,,,,,,0,2775,330,,,,,,,,,,,,,,,
2700234,1501038802772,,,,,,,,,0,2730,330,,,,,,,,,,,,,,,
2700244,1501038802782,3.13,,0.06,0.07,0.98,0,5,-1,0,2730,330,36.113663,-115.145958,21.55,5.735,2040.8,9,3,1.8,0,0.0,-1,0.0,0.0,0.0,0
2700254,1501038802792,,,,,,,,,0,2730,330,,,,,,,,,,,,,,,
2700264,1501038802802,,,,,,,,,0,2685,310,,,,,,,,,,,,,,,
2700274,1501038802812,,,,,,,,,0,2685,310,,,,,,,,,,,,,,,
2700284,1501038802822,3.15,,-0.0,0.06,1.02,-0,9,1,0,2640,310,,,,,,,,,,,,,,,
2700294,1501038802832,,,,,,,,,0,2625,310,,,,,,,,,,,,,,,
2700304,1501038802842,,,,,,,,,0,2595,300,,,,,,,,,,,,,,,
2700314,1501038802852,,,,,,,,,0,2565,300,,,,,,,,,,,,,,,
2700324,1501038802862,3.07,,-0.07,0.03,0.95,-1,10,0,0,2550,300,,,,,,,,,,,,,,,
2700334,1501038802872,,,,,,,,,0,2505,300,,,,,,,,,,,,,,,
2700344,1501038802882,,,,,,,,,0,2490,300,36.113663,-115.145973,21.82,5.735,2040.8,9,3,1.8,0,0.0,-1,0.0,0.0,0.0,0
2700354,1501038802892,,,,,,,,,0,2460,300,,,,,,,,,,,,,,,
2700364,1501038802902,3.11,,-0.14,0.03,0.83,-2,9,1,0,2460,290,,,,,,,,,,,,,,,
2700374,1501038802912,,,,,,,,,0,2460,290,,,,,,,,,,,,,,,
2700384,1501038802922,,,,,,,,,0,2430,290,,,,,,,,,,,,,,,
2700394,1501038802932,,,,,,,,,0,2415,290,,,,,,,,,,,,,,,
2700404,1501038802942,3.14,,-0.22,0.02,0.95,-1,14,3,0,2400,280,,,,,,,,,,,,,,,
2700414,1501038802952,,,,,,,,,0,2385,280,,,,,,,,,,,,,,,
2700424,1501038802962,,,,,,,,,0,2370,280,,,,,,,,,,,,,,,
2700434,1501038802972,,,,,,,,,0,2355,280,,,,,,,,,,,,,,,
2700444,1501038802982,3.13,,-0.25,-0.01,0.93,-1,12,2,0,2340,280,36.113663,-115.145988,21.83,5.736,2040.7,9,3,1.8,0,0.0,-1,0.0,0.0,0.0,0
2700454,1501038802992,,,,,,,,,0,2310,280,,,,,,,,,,,,,,,
2700464,1501038802996,,,,,,,,,0,2280,280,,,,,,,,,,,,,,,
2700474,1501038803006,,,,,,,,,0,2280,270,,,,,,,,,,,,,,,
2700484,1501038803016,3.17,,-0.39,-0.03,0.98,-3,10,3,0,2265,270,,,,,,,,,,,,,,,
2700494,1501038803026,,,,,,,,,0,2235,270,,,,,,,,,,,,,,,
2700504,1501038803036,,,,,,,,,0,2220,270,,,,,,,,,,,,,,,
2700514,1501038803046,,,,,,,,,0,2205,260,,,,,,,,,,,,,,,
2700524,1501038803056,3.18,,-0.46,-0.01,1.01,-1,9,4,0,2205,260,,,,,,,,,,,,,,,
2700534,1501038803066,,,,,,,,,0,2190,260,,,,,,,,,,,,,,,
2700544,1501038803076,,,,,,,,,0,2160,260,36.113663,-115.145988,20.9,5.736,2040.6,9,3,1.8,0,0.0,-1,0.0,0.0,0.0,0
2700554,1501038803092,,,,,,,,,0,2160,250,,,,,,,,,,,,,,,
2700564,1501038803102,3.22,,-0.53,0.0,1.1,-0,8,6,0,2130,250,,,,,,,,,,,,,,,
2700574,1501038803112,,,,,,,,,0,2115,250,,,,,,,,,,,,,,,
2700584,1501038803122,,,,,,,,,0,2115,250,,,,,,,,,,,,,,,
2700594,1501038803132,,,,,,,,,0,2100,250,,,,,,,,,,,,,,,
2700604,1501038803142,3.21,,-0.57,0.02,1.0,0,3,4,0,2070,250,,,,,,,,,,,,,,,
2700614,1501038803152,,,,,,,,,0,2070,250,,,,,,,,,,,,,,,
2700624,1501038803162,,,,,,,,,0,2055,250,,,,,,,,,,,,,,,
2700634,1501038803172,,,,,,,,,0,2040,240,,,,,,,,,,,,,,,
2700644,1501038803182,3.18,,-0.62,0.03,0.99,1,4,5,0,2040,240,36.113663,-115.145996,19.79,5.737,2040.6,9,3,1.8,0,0.0,-1,0.0,0.0,0.0,0
2700654,1501038803192,,,,,,,,,0,2025,240,,,,,,,,,,,,,,,
2700664,1501038803202,,,,,,,,,0,1995,240,,,,,,,,,,,,,,,
2700674,1501038803212,,,,,,,,,0,1980,240,,,,,,,,,,,,,,,
2700684,1501038803222,3.23,,-0.64,0.06,0.95,1,2,5,0,1965,240,,,,,,,,,,,,,,,
2700694,1501038803232,,,,,,,,,0,1950,240,,,,,,,,,,,,,,,
2700704,1501038803242,,,,,,,,,0,1950,240,,,,,,,,,,,,,,,
2700714,1501038803252,,,,,,,,,0,1935,220,,,,,,,,,,,,,,,
2700724,1501038803262,3.22,,-0.62,0.02,0.94,2,0,4,0,1905,220,,,,,,,,,,,,,,,
2700734,1501038803272,,,,,,,,,0,1905,220,,,,,,,,,,,,,,,
2700744,1501038803282,,,,,,,,,0,1875,220,36.113663,-115.146011,18.57,5.737,2040.6,9,3,1.8,0,0.0,-1,0.0,0.0,0.0,0
2700754,1501038803292,,,,,,,,,0,1860,220,,,,,,,,,,,,,,,
2700764,1501038803302,3.22,,-0.65,-0.02,0.96,2,-0,5,0,1860,220,,,,,,,,,,,,,,,
2700774,1501038803312,,,,,,,,,0,1860,220,,,,,,,,,,,,,,,
2700784,1501038803322,,,,,,,,,0,1830,220,,,,,,,,,,,,,,,
2700794,1501038803332,,,,,,,,,0,1815,220,,,,,,,,,,,,,,,
2700804,1501038803342,3.21,,-0.67,-0.01,0.99,2,-1,4,0,1800,210,,,,,,,,,,,,,,,
2700814,1501038803352,,,,,,,,,0,1785,210,,,,,,,,,,,,,,,
2700824,1501038803362,,,,,,,,,0,1770,210,,,,,,,,,,,,,,,
2700834,1501038803372,,,,,,,,,0,1770,210,,,,,,,,,,,,,,,
2700844,1501038803382,3.19,,-0.67,0.01,0.96,2,-4,5,0,1740,210,36.113659,-115.146027,17.05,5.738,2040.6,9,3,1.8,0,0.0,-1,0.0,0.0,0.0,0
2700854,1501038803391,,,,,,,,,0,1725,200,,,,,,,,,,,,,,,
2700864,1501038803401,,,,,,,,,0,1710,200,,,,,,,,,,,,,,,
2700874,1501038803411,,,,,,,,,0,1695,200,,,,,,,,,,,,,,,
2700884,1501038803421,3.24,,-0.69,-0.04,0.98,2,-2,5,0,1680,200,,,,,,,,,,,,,,,
2700894,1501038803431,,,,,,,,,0,1665,200,,,,,,,,,,,,,,,
2700904,1501038803441,,,,,,,,,0,1680,190,,,,,,,,,,,,,,,
2700914,1501038803451,,,,,,,,,0,1665,190,,,,,,,,,,,,,,,
2700924,1501038803461,3.17,,-0.7,-0.08,0.92,2,-4,3,0,1620,190,,,,,,,,,,,,,,,
2700934,1501038803471,,,,,,,,,0,1620,190,,,,,,,,,,,,,,,
2700944,1501038803481,,,,,,,,,0,1590,190,36.113659,-115.146027,15.73,5.738,2040.6,9,3,1.8,0,0.0,-1,0.0,0.0,0.0,0
2700954,1501038803491,,,,,,,,,0,1575,190,,,,,,,,,,,,,,,
2700964,1501038803501,3.23,,-0.7,-0.05,0.89,1,-5,3,0,1560,180,,,,,,,,,,,,,,,
2700974,1501038803511,,,,,,,,,0,1575,180,,,,,,,,,,,,,,,
2700984,1501038803521,,,,,,,,,0,1575,180,,,,,,,,,,,,,,,
2700994,1501038803531,,,,,,,,,0,1545,180,,,,,,,,,,,,,,,
2701004,1501038803541,3.22,,-0.67,-0.1,0.9,2,-8,3,0,1530,180,,,,,,,,,,,,,,,
2701014,1501038803551,,,,,,,,,0,1515,180,,,,,,,,,,,,,,,
2701024,1501038803561,,,,,,,,,0,1485,170,,,,,,,,,,,,,,,
2701034,1501038803571,,,,,,,,,0,1470,170,,,,,,,,,,,,,,,
2701044,1501038803581,3.22,4.51,-0.67,-0.05,0.92,1,-8,4,0,1455,170,36.113659,-115.146034,14.27,5.739,2040.6,9,3,1.8,0,0.0,-1,0.0,0.0,0.0,0
2701054,1501038803593,,,,,,,,,0,1485,170,,,,,,,,,,,,,,,
2701064,1501038803603,,,,,,,,,0,1470,170,,,,,,,,,,,,,,,
2701074,1501038803613,,,,,,,,,0,1455,170,,,,,,,,,,,,,,,
2701084,1501038803623,3.25,,-0.7,0.05,0.9,0,-6,5,0,1440,160,,,,,,,,,,,,,,,
2701094,1501038803633,,,,,,,,,0,1425,160,,,,,,,,,,,,,,,
2701104,1501038803643,,,,,,,,,0,1410,160,,,,,,,,,,,,,,,
2701114,1501038803653,,,,,,,,,0,1395,160,,,,,,,,,,,,,,,
2701124,1501038803663,3.24,,-0.68,0.09,0.89,-1,-6,5,0,1395,160,,,,,,,,,,,,,,,
2701134,1501038803673,,,,,,,,,0,1380,160,,,,,,,,,,,,,,,
2701144,1501038803683,,,,,,,,,0,1425,150,36.113659,-115.146034,13.33,5.739,2040.6,9,3,2.1,0,0.0,-1,0.0,0.0,0.0,0
2701154,1501038803691,,,,,,,,,0,1425,150,,,,,,,,,,,,,,,
2701164,1501038803701,3.23,,-0.68,0.1,0.93,-1,-5,6,0,1410,150,,,,,,,,,,,,,,,
2701174,1501038803711,,,,,,,,,0,1380,150,,,,,,,,,,,,,,,
2701184,1501038803721,,,,,,,,,0,1365,150,,,,,,,,,,,,,,,
2701194,1501038803731,,,,,,,,,0,1335,150,,,,,,,,,,,,,,,
2701204,1501038803741,3.19,,-0.7,0.16,0.93,-2,-3,6,0,1335,150,,,,,,,,,,,,,,,
2701214,1501038803751,,,,,,,,,0,1320,150,,,,,,,,,,,,,,,
2701224,1501038803761,,,,,,,,,0,1380,130,,,,,,,,,,,,,,,
2701234,1501038803771,,,,,,,,,0,1395,130,,,,,,,,,,,,,,,
2701244,1501038803781,3.24,,-0.69,0.16,0.9,-2,-2,7,0,1395,130,36.113659,-115.14605,11.69,5.74,2040.6,9,3,2.1,0,0.0,-1,0.0,0.0,0.0,0
2701254,1501038803793,,,,,,,,,0,1365,130,,,,,,,,,,,,,,,
2701264,1501038803803,,,,,,,,,0,1350,130,,,,,,,,,,,,,,,
2701274,1501038803813,,,,,,,,,0,1320,130,,,,,,,,,,,,,,,
2701284,1501038803823,3.17,,-0.65,0.08,0.89,-2,-4,7,0,1290,130,,,,,,,,,,,,,,,
2701294,1501038803833,,,,,,,,,0,1275,120,,,,,,,,,,,,,,,
2701304,1501038803843,,,,,,,,,0,1260,120,,,,,,,,,,,,,,,
2701314,1501038803853,,,,,,,,,0,1335,120,,,,,,,,,,,,,,,
2701324,1501038803863,3.22,,-0.62,0.11,0.91,-2,-7,5,0,1365,120,,,,,,,,,,,,,,,
2701334,1501038803873,,,,,,,,,0,1365,120,,,,,,,,,,,,,,,
2701344,1501038803883,,,,,,,,,0,1350,120,36.113659,-115.14605,10.84,5.74,2040.5,9,3,2.1,0,0.0,-1,0.0,0.0,0.0,0
2701354,1501038803891,,,,,,,,,0,1305,120,,,,,,,,,,,,,,,
2701364,1501038803901,3.18,,-0.6,0.12,0.9,-2,-5,5,0,1290,120,,,,,,,,,,,,,,,
2701374,1501038803911,,,,,,,,,0,1260,120,,,,,,,,,,,,,,,
2701384,1501038803921,,,,,,,,,0,1245,110,,,,,,,,,,,,,,,
2701394,1501038803931,,,,,,,,,0,1245,110,,,,,,,,,,,,,,,
2701404,1501038803941,3.22,,-0.6,0.09,0.88,-2,-6,4,0,1200,110,,,,,,,,,,,,,,,
2701414,1501038803951,,,,,,,,,0,1320,110,,,,,,,,,,,,,,,
2701424,1501038803961,,,,,,,,,0,1365,110,,,,,,,,,,,,,,,
2701434,1501038803971,,,,,,,,,0,1350,110,,,,,,,,,,,,,,,
2701444,1501038803981,3.22,,-0.55,0.1,0.84,-2,-6,5,0,1320,110,36.113659,-115.14605,9.29,5.74,2040.5,9,3,1.8,0,0.0,-1,0.0,0.0,0.0,0
2701454,1501038803991,,,,,,,,,0,1290,110,,,,,,,,,,,,,,,
2701464,1501038803995,,,,,,,,,0,1260,110,,,,,,,,,,,,,,,
2701474,1501038804005,,,,,,,,,0,1260,1030,,,,,,,,,,,,,,,
2701484,1501038804015,3.23,,-0.54,0.04,0.89,-2,-4,6,0,1230,1030,,,,,,,,,,,,,,,
2701494,1501038804025,,,,,,,,,0,1155,1030,,,,,,,,,,,,,,,
2701504,1501038804035,,,,,,,,,0,1350,1030,,,,,,,,,,,,,,,
2701514,1501038804045,,,,,,,,,0,1425,1030,,,,,,,,,,,,,,,
2701524,1501038804055,3.22,,-0.5,-0.03,0.99,-1,-4,7,0,1410,1030,,,,,,,,,,,,,,,
2701534,1501038804065,,,,,,,,,0,1365,1030,,,,,,,,,,,,,,,
2701544,1501038804075,,,,,,,,,0,1350,1030,36.113659,-115.146065,8.21,5.74,2040.5,9,3,1.8,0,0.0,-1,0.0,0.0,0.0,0
2701554,1501038804093,,,,,,,,,0,1320,1030,,,,,,,,,,,,,,,
2701564,1501038804103,3.14,,-0.48,-0.03,0.99,-1,-4,4,0,1320,1030,,,,,,,,,,,,,,,
2701574,1501038804113,,,,,,,,,0,1305,1030,,,,,,,,,,,,,,,
2701584,1501038804123,,,,,,,,,0,1200,550,,,,,,,,,,,,,,,
2701594,1501038804133,,,,,,,,,0,1425,550,,,,,,,,,,,,,,,
2701604,1501038804143,3.21,,-0.47,-0.0,0.92,-1,-8,3,0,1515,550,,,,,,,,,,,,,,,
2701614,1501038804153,,,,,,,,,0,1500,550,,,,,,,,,,,,,,,
2701624,1501038804163,,,,,,,,,0,1455,550,,,,,,,,,,,,,,,
2701634,1501038804173,,,,,,,,,0,1410,550,,,,,,,,,,,,,,,
2701644,1501038804183,3.2,,-0.42,-0.02,0.91,-1,-9,3,0,1365,550,36.113659,-115.146065,7.22,5.741,2040.4,9,3,1.8,0,0.0,-1,0.0,0.0,0.0,0
2701654,1501038804191,,,,,,,,,0,1320,550,,,,,,,,,,,,,,,
2701664,1501038804201,,,,,,,,,0,1215,550,,,,,,,,,,,,,,,
2701674,1501038804211,,,,,,,,,0,1410,550,,,,,,,,,,,,,,,
2701684,1501038804221,3.15,,-0.42,0.01,0.92,-1,-9,2,0,1500,550,,,,,,,,,,,,,,,
2701694,1501038804231,,,,,,,,,0,1470,330,,,,,,,,,,,,,,,
2701704,1501038804241,,,,,,,,,0,1425,330,,,,,,,,,,,,,,,
2701714,1501038804251,,,,,,,,,0,1425,330,,,,,,,,,,,,,,,
2701724,1501038804261,3.22,,-0.4,0.02,0.87,-1,-9,2,0,1380,330,,,,,,,,,,,,,,,
2701734,1501038804271,,,,,,,,,0,1335,330,,,,,,,,,,,,,,,
2701744,1501038804281,,,,,,,,,0,1290,330,36.113659,-115.146065,6.43,5.741,2040.6,9,3,1.8,0,0.0,-1,0.0,0.0,0.0,0
2701754,1501038804293,,,,,,,,,0,1185,330,,,,,,,,,,,,,,,
2701764,1501038804303,3.21,,-0.38,-0.03,0.91,-1,-6,6,0,1410,330,,,,,,,,,,,,,,,
2701774,1501038804313,,,,,,,,,0,1515,330,,,,,,,,,,,,,,,
2701784,1501038804323,,,,,,,,,0,1485,330,,,,,,,,,,,,,,,
2701794,1501038804333,,,,,,,,,0,1440,330,,,,,,,,,,,,,,,
2701804,1501038804343,3.2,,-0.31,-0.07,1.04,-1,-6,7,0,1395,330,,,,,,,,,,,,,,,
2701814,1501038804353,,,,,,,,,0,1365,330,,,,,,,,,,,,,,,
2701824,1501038804363,,,,,,,,,0,1365,0,,,,,,,,,,,,,,,
2701834,1501038804373,,,,,,,,,0,1305,0,,,,,,,,,,,,,,,
2701844,1501038804383,3.22,,-0.34,-0.06,0.97,-1,-6,5,0,1200,160,36.113659,-115.146065,5.31,5.741,2040.8,9,3,1.8,0,0.0,-1,0.0,0.0,0.0,0
2701854,1501038804392,,,,,,,,,0,1410,160,,,,,,,,,,,,,,,
2701864,1501038804402,,,,,,,,,0,1500,160,,,,,,,,,,,,,,,
2701874,1501038804412,,,,,,,,,0,1485,160,,,,,,,,,,,,,,,
2701884,1501038804422,3.2,,-0.3,-0.04,0.96,-1,-7,5,0,1425,160,,,,,,,,,,,,,,,
2701894,1501038804432,,,,,,,,,0,1395,160,,,,,,,,,,,,,,,
2701904,1501038804442,,,,,,,,,0,1350,160,,,,,,,,,,,,,,,
2701914,1501038804452,,,,,,,,,0,1290,160,,,,,,,,,,,,,,,
2701924,1501038804462,3.19,,-0.3,-0.03,0.99,-1,-7,2,0,1185,160,,,,,,,,,,,,,,,
2701934,1501038804472,,,,,,,,,0,1410,160,,,,,,,,,,,,,,,
2701944,1501038804482,,,,,,,,,0,1515,160,36.113659,-115.146072,4.6,5.741,2040.9,9,3,1.8,0,0.0,-1,0.0,0.0,0.0,0
2701954,1501038804492,,,,,,,,,0,1485,160,,,,,,,,,,,,,,,
2701964,1501038804502,3.13,,-0.31,-0.01,0.98,-0,-6,1,0,1440,160,,,,,,,,,,,,,,,
2701974,1501038804512,,,,,,,,,0,1395,160,,,,,,,,,,,,,,,
2701984,1501038804522,,,,,,,,,0,1395,160,,,,,,,,,,,,,,,
2701994,1501038804532,,,,,,,,,0,1365,10000000,,,,,,,,,,,,,,,
2702004,1501038804542,3.16,,-0.28,0.01,0.99,-1,-8,2,0,1305,0,,,,,,,,,,,,,,,
2702014,1501038804552,,,,,,,,,0,1185,110,,,,,,,,,,,,,,,
2702024,1501038804562,,,,,,,,,0,1395,110,,,,,,,,,,,,,,,
2702034,1501038804572,,,,,,,,,0,1500,110,,,,,,,,,,,,,,,
2702044,1501038804582,3.21,4.49,-0.23,-0.06,1.02,-2,-5,5,0,1455,110,36.113659,-115.146072,4.21,5.741,2041.0,9,3,1.8,0,0.0,-1,0.0,0.0,0.0,0
2702054,1501038804592,,,,,,,,,0,1410,110,,,,,,,,,,,,,,,
2702064,1501038804602,,,,,,,,,0,1365,110,,,,,,,,,,,,,,,
2702074,1501038804612,,,,,,,,,0,1320,110,,,,,,,,,,,,,,,
2702084,1501038804622,3.2,,-0.22,-0.05,1.03,-2,-5,5,0,1320,110,,,,,,,,,,,,,,,
2702094,1501038804632,,,,,,,,,0,1260,110,,,,,,,,,,,,,,,
2702104,1501038804642,,,,,,,,,0,1140,110,,,,,,,,,,,,,,,
2702114,1501038804652,,,,,,,,,0,1365,110,,,,,,,,,,,,,,,
2702124,1501038804662,3.21,,-0.2,-0.0,0.94,-2,-8,5,0,1470,110,,,,,,,,,,,,,,,
2702134,1501038804672,,,,,,,,,0,1440,110,,,,,,,,,,,,,,,
2702144,1501038804682,,,,,,,,,0,1395,110,36.113659,-115.146072,3.59,5.741,2041.1,9,3,1.8,0,0.0,-1,0.0,0.0,0.0,0
2702154,1501038804692,,,,,,,,,0,1365,110,,,,,,,,,,,,,,,
2702164,1501038804702,3.16,,-0.2,-0.03,0.9,-1,-6,5,0,1320,10000000,,,,,,,,,,,,,,,
2702174,1501038804712,,,,,,,,,0,1320,0,,,,,,,,,,,,,,,
2702184,1501038804722,,,,,,,,,0,1275,0,,,,,,,,,,,,,,,
2702194,1501038804732,,,,,,,,,0,1155,0,,,,,,,,,,,,,,,
2702204,1501038804742,3.17,,-0.16,-0.08,1.02,-1,-6,4,0,1380,0,,,,,,,,,,,,,,,
2702214,1501038804752,,,,,,,,,0,1485,0,,,,,,,,,,,,,,,
2702224,1501038804762,,,,,,,,,0,1455,0,,,,,,,,,,,,,,,
2702234,1501038804772,,,,,,,,,0,1425,220,,,,,,,,,,,,,,,
2702244,1501038804782,3.19,,-0.22,-0.09,1.04,-0,-6,3,0,1395,220,36.113655,-115.146072,3.29,5.741,2041.5,9,3,1.8,0,0.0,-1,0.0,0.0,0.0,0
2702254,1501038804792,,,,,,,,,0,1350,220,,,,,,,,,,,,,,,
2702264,1501038804802,,,,,,,,,0,1320,220,,,,,,,,,,,,,,,
2702274,1501038804812,,,,,,,,,0,1215,220,,,,,,,,,,,,,,,
2702284,1501038804822,3.15,,-0.22,-0.04,0.97,0,-4,2,0,1425,220,,,,,,,,,,,,,,,
2702294,1501038804832,,,,,,,,,0,1530,220,,,,,,,,,,,,,,,
2702304,1501038804842,,,,,,,,,0,1515,220,,,,,,,,,,,,,,,
2702314,1501038804852,,,,,,,,,0,1485,220,,,,,,,,,,,,,,,
2702324,1501038804862,3.15,,-0.24,-0.07,0.98,-0,-2,2,0,1470,220,,,,,,,,,,,,,,,
2702334,1501038804872,,,,,,,,,0,1440,10000000,,,,,,,,,,,,,,,
2702344,1501038804882,,,,,,,,,0,1440,0,36.113655,-115.146072,2.81,5.742,2041.6,9,3,1.8,0,0.0,-1,0.0,0.0,0.0,0
2702354,1501038804892,,,,,,,,,0,1410,0,,,,,,,,,,,,,,,
2702364,1501038804900,3.2,,-0.27,-0.07,0.95,-1,-3,2,0,1320,0,,,,,,,,,,,,,,,
2702374,1501038804910,,,,,,,,,0,1650,0,,,,,,,,,,,,,,,
2702384,1501038804920,,,,,,,,,0,1635,0,,,,,,,,,,,,,,,
2702394,1501038804930,,,,,,,,,0,1590,0,,,,,,,,,,,,,,,
2702404,1501038804940,3.2,,-0.21,-0.09,0.98,-1,-0,3,0,1575,0,,,,,,,,,,,,,,,
2702414,1501038804950,,,,,,,,,0,1530,0,,,,,,,,,,,,,,,
2702424,1501038804960,,,,,,,,,0,1500,0,,,,,,,,,,,,,,,
2702434,1501038804970,,,,,,,,,0,1425,0,,,,,,,,,,,,,,,
2702444,1501038804980,3.2,,-0.25,-0.05,0.94,-1,-0,3,0,1605,0,36.113655,-115.146072,2.38,5.742,2041.6,9,3,1.8,0,0.0,-1,0.0,0.0,0.0,0
2702454,1501038804990,,,,,,,,,0,1710,0,,,,,,,,,,,,,,,
2702464,1501038804994,,,,,,,,,0,1680,0,,,,,,,,,,,,,,,
2702474,1501038805004,,,,,,,,,0,1650,0,,,,,,,,,,,,,,,
2702484,1501038805014,3.2,,-0.2,-0.13,1.06,-1,1,4,0,1620,0,,,,,,,,,,,,,,,
2702494,1501038805024,,,,,,,,,0,1590,0,,,,,,,,,,,,,,,
2702504,1501038805034,,,,,,,,,0,1560,0,,,,,,,,,,,,,,,
2702514,1501038805044,,,,,,,,,0,1485,0,,,,,,,,,,,,,,,
2702524,1501038805054,3.17,,-0.19,-0.16,1.19,-2,0,5,0,1695,0,,,,,,,,,,,,,,,
2702534,1501038805064,,,,,,,,,0,1665,0,,,,,,,,,,,,,,,
2702544,1501038805074,,,,,,,,,0,1635,0,36.113655,-115.146072,2.03,5.742,2041.6,9,3,1.8,0,0.0,-1,0.0,0.0,0.0,0
2702554,1501038805084,,,,,,,,,0,1605,0,,,,,,,,,,,,,,,
2702564,1501038805100,3.23,,-0.18,-0.1,1.14,-1,-2,5,0,1575,0,,,,,,,,,,,,,,,
2702574,1501038805110,,,,,,,,,0,1545,0,,,,,,,,,,,,,,,
2702584,1501038805120,,,,,,,,,0,1485,0,,,,,,,,,,,,,,,
2702594,1501038805130,,,,,,,,,0,1605,0,,,,,,,,,,,,,,,
2702604,1501038805140,3.22,,-0.21,-0.03,1.08,-1,-4,4,0,1635,0,,,,,,,,,,,,,,,
2702614,1501038805150,,,,,,,,,0,1620,0,,,,,,,,,,,,,,,
2702624,1501038805160,,,,,,,,,0,1575,0,,,,,,,,,,,,,,,
2702634,1501038805170,,,,,,,,,0,1545,0,,,,,,,,,,,,,,,
2702644,1501038805180,3.17,,-0.19,0.0,0.99,-1,-5,3,0,1500,0,36.113655,-115.146072,1.51,5.742,2041.6,9,3,1.8,0,0.0,-1,0.0,0.0,0.0,0
2702654,1501038805194,,,,,,,,,0,1485,0,,,,,,,,,,,,,,,
2702664,1501038805204,,,,,,,,,0,1410,0,,,,,,,,,,,,,,,
2702674,1501038805214,,,,,,,,,0,1545,0,,,,,,,,,,,,,,,
2702684,1501038805224,3.18,,-0.16,-0.0,0.93,-2,-6,3,0,1590,0,,,,,,,,,,,,,,,
2702694,1501038805234,,,,,,,,,0,1560,0,,,,,,,,,,,,,,,
2702704,1501038805244,,,,,,,,,0,1515,0,,,,,,,,,,,,,,,
2702714,1501038805254,,,,,,,,,0,1485,0,,,,,,,,,,,,,,,
2702724,1501038805264,3.19,,-0.11,-0.02,0.93,-2,-6,4,0,1440,0,,,,,,,,,,,,,,,
2702734,1501038805274,,,,,,,,,0,1395,0,,,,,,,,,,,,,,,
2702744,1501038805284,,,,,,,,,0,1305,0,36.113655,-115.146088,1.07,5.742,2041.5,9,3,1.8,0,0.0,-1,0.0,0.0,0.0,0
2702754,1501038805294,,,,,,,,,0,1470,0,,,,,,,,,,,,,,,
2702764,1501038805304,3.18,,-0.1,-0.0,0.88,-2,-8,3,0,1530,0,,,,,,,,,,,,,,,
2702774,1501038805314,,,,,,,,,0,1500,0,,,,,,,,,,,,,,,
2702784,1501038805324,,,,,,,,,0,1455,0,,,,,,,,,,,,,,,
2702794,1501038805334,,,,,,,,,0,1425,0,,,,,,,,,,,,,,,
2702804,1501038805344,3.18,,-0.09,-0.03,0.85,-1,-6,3,0,1380,0,,,,,,,,,,,,,,,
2702814,1501038805354,,,,,,,,,0,1335,0,,,,,,,,,,,,,,,
2702824,1501038805364,,,,,,,,,0,1335,0,,,,,,,,,,,,,,,
2702834,1501038805374,,,,,,,,,0,1245,0,,,,,,,,,,,,,,,
2702844,1501038805384,3.18,,-0.13,-0.03,1.04,-0,-7,2,0,1455,0,36.113655,-115.146088,0.0,5.742,2041.4,9,3,1.8,0,0.0,-1,0.0,0.0,0.0,0
2702854,1501038805391,,,,,,,,,0,1530,0,,,,,,,,,,,,,,,
2702864,1501038805401,,,,,,,,,0,1515,0,,,,,,,,,,,,,,,
2702874,1501038805411,,,,,,,,,0,1470,0,,,,,,,,,,,,,,,
2702884,1501038805421,3.2,,-0.14,0.01,0.97,-1,-7,2,0,1440,0,,,,,,,,,,,,,,,
2702894,1501038805431,,,,,,,,,0,1410,0,,,,,,,,,,,,,,,
2702904,1501038805441,,,,,,,,,0,1365,0,,,,,,,,,,,,,,,
2702914,1501038805451,,,,,,,,,0,1275,0,,,,,,,,,,,,,,,
2702924,1501038805461,3.17,,-0.07,-0.04,1.07,-1,-9,3,0,1485,0,,,,,,,,,,,,,,,
2702934,1501038805471,,,,,,,,,0,1590,0,,,,,,,,,,,,,,,
2702944,1501038805481,,,,,,,,,0,1560,0,36.113655,-115.146088,0.0,5.742,2041.3,9,3,1.8,0,0.0,-1,0.0,0.0,0.0,0
2702954,1501038805491,,,,,,,,,0,1530,0,,,,,,,,,,,,,,,
2702964,1501038805501,3.16,,-0.08,-0.02,1.08,-1,-8,2,0,1500,0,,,,,,,,,,,,,,,
2702974,1501038805511,,,,,,,,,0,1470,0,,,,,,,,,,,,,,,
2702984,1501038805521,,,,,,,,,0,1425,0,,,,,,,,,,,,,,,
2702994,1501038805531,,,,,,,,,0,1335,0,,,,,,,,,,,,,,,
2703004,1501038805541,3.17,,-0.02,-0.05,1.16,-2,-9,4,0,1545,0,,,,,,,,,,,,,,,
2703014,1501038805551,,,,,,,,,0,1650,0,,,,,,,,,,,,,,,
2703024,1501038805561,,,,,,,,,0,1620,0,,,,,,,,,,,,,,,
2703034,1501038805571,,,,,,,,,0,1575,0,,,,,,,,,,,,,,,
2703044,1501038805581,3.17,4.51,-0.03,-0.03,1.14,-1,-9,3,0,1560,0,36.113655,-115.146088,0.0,5.742,2041.2,9,3,1.8,0,0.0,-1,0.0,0.0,0.0,0
2703054,1501038805593,,,,,,,,,0,1515,0,,,,,,,,,,,,,,,
2703064,1501038805603,,,,,,,,,0,1485,0,,,,,,,,,,,,,,,
2703074,1501038805613,,,,,,,,,0,1395,0,,,,,,,,,,,,,,,
2703084,1501038805623,3.13,,-0.01,-0.05,1.17,-1,-8,2,0,1665,0,,,,,,,,,,,,,,,
2703094,1501038805633,,,,,,,,,0,1650,0,,,,,,,,,,,,,,,
2703104,1501038805643,,,,,,,,,0,1605,0,,,,,,,,,,,,,,,
2703114,1501038805653,,,,,,,,,0,1575,0,,,,,,,,,,,,,,,
2703124,1501038805663,3.19,,-0.02,0.01,1.08,-1,-8,2,0,1560,0,,,,,,,,,,,,,,,
2703134,1501038805673,,,,,,,,,0,1515,0,,,,,,,,,,,,,,,
2703144,1501038805683,,,,,,,,,0,1440,0,36.113655,-115.146088,0.0,5.742,2041.0,9,3,1.8,0,0.0,-1,0.0,0.0,0.0,0
2703154,1501038805693,,,,,,,,,0,1605,0,,,,,,,,,,,,,,,
2703164,1501038805703,3.18,,-0.03,0.06,0.99,-1,-9,1,0,1680,0,,,,,,,,,,,,,,,
2703174,1501038805713,,,,,,,,,0,1665,0,,,,,,,,,,,,,,,
2703184,1501038805723,,,,,,,,,0,1620,0,,,,,,,,,,,,,,,
2703194,1501038805733,,,,,,,,,0,1590,0,,,,,,,,,,,,,,,
2703204,1501038805743,3.21,,-0.03,0.07,0.89,-1,-9,0,0,1545,0,,,,,,,,,,,,,,,
2703214,1501038805753,,,,,,,,,0,1530,0,,,,,,,,,,,,,,,
2703224,1501038805763,,,,,,,,,0,1440,0,,,,,,,,,,,,,,,
2703234,1501038805773,,,,,,,,,0,1590,0,,,,,,,,,,,,,,,
2703244,1501038805783,3.18,,-0.05,0.06,0.89,-1,-10,-1,0,1650,0,36.113655,-115.146088,0.0,5.742,2040.8,9,3,1.8,0,0.0,-1,0.0,0.0,0.0,0
2703254,1501038805795,,,,,,,,,0,1590,0,,,,,,,,,,,,,,,
2703264,1501038805805,,,,,,,,,0,1560,110,,,,,,,,,,,,,,,
2703274,1501038805815,,,,,,,,,0,1515,110,,,,,,,,,,,,,,,
2703284,1501038805825,3.23,,-0.04,0.0,0.91,-1,-7,0,0,1515,110,,,,,,,,,,,,,,,
2703294,1501038805835,,,,,,,,,0,1410,110,,,,,,,,,,,,,,,
2703304,1501038805845,,,,,,,,,0,1560,110,,,,,,,,,,,,,,,
2703314,1501038805855,,,,,,,,,0,1620,110,,,,,,,,,,,,,,,
2703324,1501038805865,3.24,,-0.02,-0.03,0.91,-1,-6,0,0,1590,110,,,,,,,,,,,,,,,
2703334,1501038805875,,,,,,,,,0,1560,110,,,,,,,,,,,,,,,
2703344,1501038805885,,,,,,,,,0,1530,110,36.113655,-115.146088,0.0,5.742,2040.7,9,3,1.8,0,0.0,-1,0.0,0.0,0.0,0
2703354,1501038805893,,,,,,,,,0,1485,110,,,,,,,,,,,,,,,
2703364,1501038805903,3.23,,0.0,-0.06,1.03,-1,-5,1,0,1455,10000000,,,,,,,,,,,,,,,
2703374,1501038805913,,,,,,,,,0,1380,0,,,,,,,,,,,,,,,
2703384,1501038805923,,,,,,,,,0,1545,0,,,,,,,,,,,,,,,
2703394,1501038805933,,,,,,,,,0,1620,0,,,,,,,,,,,,,,,
2703404,1501038805943,3.23,,0.02,-0.07,1.07,-1,-3,2,0,1590,0,,,,,,,,,,,,,,,
2703414,1501038805953,,,,,,,,,0,1545,0,,,,,,,,,,,,,,,
2703424,1501038805963,,,,,,,,,0,1515,0,,,,,,,,,,,,,,,
2703434,1501038805973,,,,,,,,,0,1485,0,,,,,,,,,,,,,,,
2703444,1501038805983,3.22,,0.02,-0.06,1.17,-1,-3,1,0,1455,0,36.113655,-115.146088,0.0,5.742,2040.7,9,3,1.8,0,0.0,-1,0.0,0.0,0.0,0
2703454,1501038805993,,,,,,,,,0,1350,0,,,,,,,,,,,,,,,
2703464,1501038805993,,,,,,,,,0,1545,0,,,,,,,,,,,,,,,
2703474,1501038806003,,,,,,,,,0,1635,0,,,,,,,,,,,,,,,
2703484,1501038806013,3.19,,0.0,-0.09,1.25,-1,-2,4,0,1605,0,,,,,,,,,,,,,,,
2703494,1501038806023,,,,,,,,,0,1560,0,,,,,,,,,,,,,,,
2703504,1501038806033,,,,,,,,,0,1545,0,,,,,,,,,,,,,,,
2703514,1501038806043,,,,,,,,,0,1500,0,,,,,,,,,,,,,,,
2703524,1501038806053,3.2,,-0.01,-0.08,1.21,-1,-1,3,0,1470,0,,,,,,,,,,,,,,,
2703534,1501038806063,,,,,,,,,0,1380,0,,,,,,,,,,,,,,,
2703544,1501038806073,,,,,,,,,0,1560,0,36.113655,-115.146088,0.0,5.742,2040.6,9,3,1.8,0,0.0,-1,0.0,0.0,0.0,0
2703554,1501038806093,,,,,,,,,0,1650,0,,,,,,,,,,,,,,,
2703564,1501038806103,3.19,,-0.02,-0.1,1.24,-1,-1,6,0,1620,0,,,,,,,,,,,,,,,
2703574,1501038806113,,,,,,,,,0,1590,0,,,,,,,,,,,,,,,
2703584,1501038806123,,,,,,,,,0,1560,0,,,,,,,,,,,,,,,
2703594,1501038806133,,,,,,,,,0,1515,0,,,,,,,,,,,,,,,
2703604,1501038806143,3.17,,-0.02,-0.06,1.2,-1,-2,6,0,1485,0,,,,,,,,,,,,,,,
2703614,1501038806153,,,,,,,,,0,1410,0,,,,,,,,,,,,,,,
2703624,1501038806163,,,,,,,,,0,1590,0,,,,,,,,,,,,,,,
2703634,1501038806173,,,,,,,,,0,1650,0,,,,,,,,,,,,,,,
2703644,1501038806183,3.19,,-0.02,-0.06,1.23,-1,-3,4,0,1590,0,36.113655,-115.146088,0.0,5.742,2040.5,9,3,1.8,0,0.0,-1,0.0,0.0,0.0,0
2703654,1501038806193,,,,,,,,,0,1560,0,,,,,,,,,,,,,,,
2703664,1501038806203,,,,,,,,,0,1530,0,,,,,,,,,,,,,,,
2703674,1501038806213,,,,,,,,,0,1530,0,,,,,,,,,,,,,,,
2703684,1501038806223,3.13,,-0.03,-0.0,1.2,-1,-5,4,0,1425,0,,,,,,,,,,,,,,,
2703694,1501038806233,,,,,,,,,0,1575,0,,,,,,,,,,,,,,,
2703704,1501038806243,,,,,,,,,0,1650,0,,,,,,,,,,,,,,,
2703714,1501038806253,,,,,,,,,0,1620,0,,,,,,,,,,,,,,,
2703724,1501038806263,3.17,,-0.05,0.02,1.15,-0,-6,4,0,1575,0,,,,,,,,,,,,,,,
2703734,1501038806273,,,,,,,,,0,1560,0,,,,,,,,,,,,,,,
2703744,1501038806283,,,,,,,,,0,1515,0,36.113655,-115.146088,0.0,5.742,2040.5,9,3,1.8,0,0.0,-1,0.0,0.0,0.0,0
2703754,1501038806293,,,,,,,,,0,1485,0,,,,,,,,,,,,,,,
2703764,1501038806303,3.15,,-0.02,0.05,1.02,-0,-6,3,0,1410,0,,,,,,,,,,,,,,,
2703774,1501038806313,,,,,,,,,0,1560,0,,,,,,,,,,,,,,,
2703784,1501038806323,,,,,,,,,0,1635,0,,,,,,,,,,,,,,,
2703794,1501038806333,,,,,,,,,0,1605,0,,,,,,,,,,,,,,,
2703804,1501038806343,3.18,,0.01,0.09,0.93,-1,-5,4,0,1575,0,,,,,,,,,,,,,,,
2703814,1501038806353,,,,,,,,,0,1545,0,,,,,,,,,,,,,,,
2703824,1501038806363,,,,,,,,,0,1515,0,,,,,,,,,,,,,,,
2703834,1501038806373,,,,,,,,,0,1485,0,,,,,,,,,,,,,,,
2703844,1501038806383,3.16,,0.02,0.05,0.92,-1,-4,4,0,1410,0,36.113655,-115.146088,0.0,5.742,2040.5,9,3,1.8,0,0.0,-1,0.0,0.0,0.0,0
2703854,1501038806392,,,,,,,,,0,1575,0,,,,,,,,,,,,,,,
2703864,1501038806402,,,,,,,,,0,1635,0,,,,,,,,,,,,,,,
2703874,1501038806412,,,,,,,,,0,1620,0,,,,,,,,,,,,,,,
