"Interval"|"ms"|0|0|1,"Utc"|"ms"|0|0|1,"Analog1"|""|0.0|5.0|25,"Battery"|"Volts"|0.0|20.0|1,"AccelX"|"G"|-3.0|3.0|25,"AccelY"|"G"|-3.0|3.0|25,"AccelZ"|"G"|-3.0|3.0|25,"Yaw"|"Deg/Sec"|-120|120|25,"Pitch"|"Deg/Sec"|-120|120|25,"Roll"|"Deg/Sec"|-120|120|25,"RPM"|""|0|10000|100,"EngineRPM"|""|0|10000|100,"AxleRpm"|""|0|10000|100,"Latitude"|"Degrees"|-180.0|180.0|10,"Longitude"|"Degrees"|-180.0|180.0|10,"Speed"|"mph"|0.0|150.0|10,"Distance"|"mi"|0.0|0.0|10,"Altitude"|"ft"|0.0|4000.0|10,"GPSSats"|""|0|20|10,"GPSQual"|""|0|5|10,"GPSDOP"|""|0.0|20.0|10,"LapCount"|""|0|0|10,"LapTime"|"Min"|0.0|0.0|10,"Sector"|""|0|0|10,"SectorTime"|"Min"|0.0|0.0|10,"PredTime"|"Min"|0.0|0.0|10,"ElapsedTime"|"Min"|0.0|0.0|10,"CurrentLap"|""|0|0|10
3028434,1501039130978,,,,,,,,,0,1650,0,,,,,,,,,,,,,,,
3028444,1501039130988,3.09,,-0.0,-0.05,1.15,-2,-6,4,0,1590,0,36.113674,-115.145676,0.0,6.475,2047.3,9,3,1.9,0,0.0,-1,0.0,0.0,0.0,0
3028454,1501039130998,,,,,,,,,0,1560,0,,,,,,,,,,,,,,,
3028464,1501039131000,,,,,,,,,0,1530,0,,,,,,,,,,,,,,,
3028474,1501039131010,,,,,,,,,0,1500,0,,,,,,,,,,,,,,,
3028484,1501039131020,3.15,,-0.03,-0.05,1.12,-2,-5,4,0,1410,0,,,,,,,,,,,,,,,
3028494,1501039131030,,,,,,,,,0,1575,0,,,,,,,,,,,,,,,
3028504,1501039131040,,,,,,,,,0,1650,0,,,,,,,,,,,,,,,
3028514,1501039131050,,,,,,,,,0,1635,0,,,,,,,,,,,,,,,
3028524,1501039131060,3.19,,-0.06,-0.06,0.99,-2,-5,5,0,1590,0,,,,,,,,,,,,,,,
3028534,1501039131070,,,,,,,,,0,1560,0,,,,,,,,,,,,,,,
3028544,1501039131080,,,,,,,,,0,1530,0,36.113674,-115.145676,0.0,6.475,2047.3,9,3,1.9,0,0.0,-1,0.0,0.0,0.0,0
3028554,1501039131098,,,,,,,,,0,1500,0,,,,,,,,,,,,,,,
3028564,1501039131108,3.15,,-0.02,-0.08,0.86,-2,-7,5,0,1410,0,,,,,,,,,,,,,,,
3028574,1501039131118,,,,,,,,,0,1575,0,,,,,,,,,,,,,,,
3028584,1501039131128,,,,,,,,,0,1650,0,,,,,,,,,,,,,,,
3028594,1501039131138,,,,,,,,,0,1635,0,,,,,,,,,,,,,,,
3028604,1501039131148,3.19,,-0.01,-0.08,0.75,-1,-8,5,0,1590,0,,,,,,,,,,,,,,,
3028614,1501039131158,,,,,,,,,0,1560,0,,,,,,,,,,,,,,,
3028624,1501039131168,,,,,,,,,0,1530,0,,,,,,,,,,,,,,,
3028634,1501039131178,,,,,,,,,0,1500,0,,,,,,,,,,,,,,,
3028644,1501039131188,3.15,,0.03,-0.09,0.7,-1,-10,4,0,1410,0,36.113674,-115.145676,0.0,6.475,2047.3,9,3,1.9,0,0.0,-1,0.0,0.0,0.0,0
3028654,1501039131196,,,,,,,,,0,1575,0,,,,,,,,,,,,,,,
3028664,1501039131206,,,,,,,,,0,1650,0,,,,,,,,,,,,,,,
3028674,1501039131216,,,,,,,,,0,1620,0,,,,,,,,,,,,,,,
3028684,1501039131226,3.16,,0.02,-0.07,0.67,-1,-8,4,0,1590,0,,,,,,,,,,,,,,,
3028694,1501039131236,,,,,,,,,0,1560,0,,,,,,,,,,,,,,,
3028704,1501039131246,,,,,,,,,0,1530,0,,,,,,,,,,,,,,,
3028714,1501039131256,,,,,,,,,0,1500,0,,,,,,,,,,,,,,,
3028724,1501039131266,3.12,,-0.02,-0.06,0.65,-1,-7,2,0,1575,0,,,,,,,,,,,,,,,
3028734,1501039131276,,,,,,,,,0,1665,0,,,,,,,,,,,,,,,
3028744,1501039131286,,,,,,,,,0,1635,0,36.113674,-115.145676,0.0,6.475,2047.3,9,3,1.9,0,0.0,-1,0.0,0.0,0.0,0
3028754,1501039131298,,,,,,,,,0,1590,0,,,,,,,,,,,,,,,
3028764,1501039131308,3.16,,-0.03,-0.08,0.75,-1,-5,4,0,1560,0,,,,,,,,,,,,,,,
3028774,1501039131318,,,,,,,,,0,1530,0,,,,,,,,,,,,,,,
3028784,1501039131328,,,,,,,,,0,1500,0,,,,,,,,,,,,,,,
3028794,1501039131338,,,,,,,,,0,1425,0,,,,,,,,,,,,,,,
3028804,1501039131348,3.18,,-0.03,-0.07,0.83,-1,-0,5,0,1575,0,,,,,,,,,,,,,,,
3028814,1501039131358,,,,,,,,,0,1650,0,,,,,,,,,,,,,,,
3028824,1501039131368,,,,,,,,,0,1635,0,,,,,,,,,,,,,,,
3028834,1501039131378,,,,,,,,,0,1590,0,,,,,,,,,,,,,,,
3028844,1501039131388,3.19,,-0.04,-0.08,0.93,-1,2,4,0,1560,0,36.113674,-115.145676,0.0,6.475,2047.3,9,3,1.9,0,0.0,-1,0.0,0.0,0.0,0
3028854,1501039131398,,,,,,,,,0,1530,0,,,,,,,,,,,,,,,
3028864,1501039131408,,,,,,,,,0,1500,0,,,,,,,,,,,,,,,
3028874,1501039131418,,,,,,,,,0,1410,0,,,,,,,,,,,,,,,
3028884,1501039131428,3.18,,-0.0,-0.06,1.05,-1,3,4,0,1575,0,,,,,,,,,,,,,,,
3028894,1501039131438,,,,,,,,,0,1650,0,,,,,,,,,,,,,,,
3028904,1501039131448,,,,,,,,,0,1620,0,,,,,,,,,,,,,,,
3028914,1501039131458,,,,,,,,,0,1605,0,,,,,,,,,,,,,,,
3028924,1501039131468,3.16,,0.02,-0.08,1.08,-1,2,3,0,1560,0,,,,,,,,,,,,,,,
3028934,1501039131478,,,,,,,,,0,1530,0,,,,,,,,,,,,,,,
3028944,1501039131488,,,,,,,,,0,1500,0,36.113674,-115.145676,0.0,6.475,2047.3,9,3,1.9,0,0.0,-1,0.0,0.0,0.0,0
3028954,1501039131498,,,,,,,,,0,1575,0,,,,,,,,,,,,,,,
3028964,1501039131508,3.16,,-0.01,-0.1,1.23,-2,4,3,0,1665,0,,,,,,,,,,,,,,,
3028974,1501039131518,,,,,,,,,0,1635,0,,,,,,,,,,,,,,,
3028984,1501039131528,,,,,,,,,0,1590,0,,,,,,,,,,,,,,,
3028994,1501039131538,,,,,,,,,0,1560,0,,,,,,,,,,,,,,,
3029004,1501039131548,3.17,,0.01,-0.07,1.15,-1,-0,2,0,1530,0,,,,,,,,,,,,,,,
3029014,1501039131558,,,,,,,,,0,1500,0,,,,,,,,,,,,,,,
3029024,1501039131568,,,,,,,,,0,1425,0,,,,,,,,,,,,,,,
3029034,1501039131578,,,,,,,,,0,1590,0,,,,,,,,,,,,,,,
3029044,1501039131588,3.18,4.51,0.03,-0.07,1.12,-0,-1,3,0,1650,0,36.113674,-115.145676,0.0,6.475,2047.3,9,3,1.9,0,0.0,-1,0.0,0.0,0.0,0
3029054,1501039131598,,,,,,,,,0,1635,0,,,,,,,,,,,,,,,
3029064,1501039131608,,,,,,,,,0,1605,0,,,,,,,,,,,,,,,
3029074,1501039131618,,,,,,,,,0,1560,0,,,,,,,,,,,,,,,
3029084,1501039131628,3.16,,0.01,-0.02,1.01,-0,-6,3,0,1530,0,,,,,,,,,,,,,,,
3029094,1501039131638,,,,,,,,,0,1500,0,,,,,,,,,,,,,,,
3029104,1501039131648,,,,,,,,,0,1425,0,,,,,,,,,,,,,,,
3029114,1501039131658,,,,,,,,,0,1590,0,,,,,,,,,,,,,,,
3029124,1501039131668,3.19,,0.04,-0.04,0.97,-1,-9,3,0,1665,0,,,,,,,,,,,,,,,
3029134,1501039131678,,,,,,,,,0,1635,0,,,,,,,,,,,,,,,
3029144,1501039131688,,,,,,,,,0,1605,0,36.113674,-115.145676,0.0,6.475,2047.3,9,3,1.9,0,0.0,-1,0.0,0.0,0.0,0
3029154,1501039131697,,,,,,,,,0,1560,0,,,,,,,,,,,,,,,
3029164,1501039131707,3.19,,-0.02,-0.01,0.9,-1,-8,4,0,1530,0,,,,,,,,,,,,,,,
3029174,1501039131717,,,,,,,,,0,1500,0,,,,,,,,,,,,,,,
3029184,1501039131727,,,,,,,,,0,1590,0,,,,,,,,,,,,,,,
3029194,1501039131737,,,,,,,,,0,1665,0,,,,,,,,,,,,,,,
3029204,1501039131747,3.19,,-0.03,0.01,0.86,-1,-10,3,0,1635,0,,,,,,,,,,,,,,,
3029214,1501039131757,,,,,,,,,0,1605,0,,,,,,,,,,,,,,,
3029224,1501039131767,,,,,,,,,0,1560,0,,,,,,,,,,,,,,,
3029234,1501039131777,,,,,,,,,0,1530,0,,,,,,,,,,,,,,,
3029244,1501039131787,3.2,,-0.05,-0.01,0.89,-1,-5,3,0,1500,0,36.113674,-115.145676,0.0,6.475,2047.3,9,3,1.9,0,0.0,-1,0.0,0.0,0.0,0
3029254,1501039131797,,,,,,,,,0,1425,0,,,,,,,,,,,,,,,
3029264,1501039131807,,,,,,,,,0,1575,0,,,,,,,,,,,,,,,
3029274,1501039131817,,,,,,,,,0,1650,0,,,,,,,,,,,,,,,
3029284,1501039131827,3.18,,-0.08,-0.01,0.87,-1,-5,4,0,1635,0,,,,,,,,,,,,,,,
3029294,1501039131837,,,,,,,,,0,1590,0,,,,,,,,,,,,,,,
3029304,1501039131847,,,,,,,,,0,1560,0,,,,,,,,,,,,,,,
3029314,1501039131857,,,,,,,,,0,1530,0,,,,,,,,,,,,,,,
3029324,1501039131867,3.19,,-0.05,-0.04,0.96,-1,-2,5,0,1500,0,,,,,,,,,,,,,,,
3029334,1501039131877,,,,,,,,,0,1410,0,,,,,,,,,,,,,,,
3029344,1501039131887,,,,,,,,,0,1575,0,36.113674,-115.145676,0.0,6.475,2047.3,9,3,1.9,0,0.0,-1,0.0,0.0,0.0,0
3029354,1501039131897,,,,,,,,,0,1650,0,,,,,,,,,,,,,,,
3029364,1501039131907,3.18,,-0.03,-0.05,0.99,-2,0,5,0,1620,0,,,,,,,,,,,,,,,
3029374,1501039131917,,,,,,,,,0,1590,0,,,,,,,,,,,,,,,
3029384,1501039131927,,,,,,,,,0,1560,0,,,,,,,,,,,,,,,
3029394,1501039131937,,,,,,,,,0,1530,0,,,,,,,,,,,,,,,
3029404,1501039131947,3.2,,-0.01,-0.07,1.15,-3,-1,6,0,1500,0,,,,,,,,,,,,,,,
3029414,1501039131957,,,,,,,,,0,1410,0,,,,,,,,,,,,,,,
3029424,1501039131967,,,,,,,,,0,1650,0,,,,,,,,,,,,,,,
3029434,1501039131977,,,,,,,,,0,1635,0,,,,,,,,,,,,,,,
3029444,1501039131987,3.2,,-0.01,-0.07,1.18,-2,-0,3,0,1590,0,36.113674,-115.145676,0.0,6.475,2047.3,9,3,1.9,0,0.0,-1,0.0,0.0,0.0,0
3029454,1501039131991,,,,,,,,,0,1560,0,,,,,,,,,,,,,,,
3029464,1501039132001,,,,,,,,,0,1530,0,,,,,,,,,,,,,,,
3029474,1501039132011,,,,,,,,,0,1500,0,,,,,,,,,,,,,,,
3029484,1501039132021,3.19,,-0.02,-0.04,1.19,-1,-3,3,0,1410,0,,,,,,,,,,,,,,,
3029494,1501039132031,,,,,,,,,0,1575,0,,,,,,,,,,,,,,,
3029504,1501039132041,,,,,,,,,0,1650,0,,,,,,,,,,,,,,,
3029514,1501039132051,,,,,,,,,0,1635,0,,,,,,,,,,,,,,,
3029524,1501039132061,3.21,,-0.0,-0.03,1.17,-1,-3,3,0,1590,0,,,,,,,,,,,,,,,
3029534,1501039132071,,,,,,,,,0,1560,0,,,,,,,,,,,,,,,
3029544,1501039132081,,,,,,,,,0,1530,0,36.113674,-115.145676,0.0,6.475,2047.3,9,3,1.9,0,0.0,-1,0.0,0.0,0.0,0
3029554,1501039132093,,,,,,,,,0,1485,0,,,,,,,,,,,,,,,
3029564,1501039132103,3.17,,0.02,-0.04,1.09,-1,-7,4,0,1425,0,,,,,,,,,,,,,,,
3029574,1501039132113,,,,,,,,,0,1575,0,,,,,,,,,,,,,,,
3029584,1501039132123,,,,,,,,,0,1650,0,,,,,,,,,,,,,,,
3029594,1501039132133,,,,,,,,,0,1620,0,,,,,,,,,,,,,,,
3029604,1501039132143,3.21,,0.04,-0.03,1.05,-1,-8,4,0,1605,0,,,,,,,,,,,,,,,
3029614,1501039132153,,,,,,,,,0,1560,0,,,,,,,,,,,,,,,
3029624,1501039132163,,,,,,,,,0,1530,0,,,,,,,,,,,,,,,
3029634,1501039132173,,,,,,,,,0,1500,0,,,,,,,,,,,,,,,
3029644,1501039132183,3.19,,0.05,-0.01,0.91,-1,-11,3,0,1410,0,36.113674,-115.145676,0.0,6.475,2047.3,9,3,1.9,0,0.0,-1,0.0,0.0,0.0,0
3029654,1501039132197,,,,,,,,,0,1575,0,,,,,,,,,,,,,,,
3029664,1501039132207,,,,,,,,,0,1635,0,,,,,,,,,,,,,,,
3029674,1501039132217,,,,,,,,,0,1590,0,,,,,,,,,,,,,,,
3029684,1501039132227,3.19,,0.01,0.02,0.93,-1,-10,4,0,1560,0,,,,,,,,,,,,,,,
3029694,1501039132237,,,,,,,,,0,1530,0,,,,,,,,,,,,,,,
3029704,1501039132247,,,,,,,,,0,1500,0,,,,,,,,,,,,,,,
3029714,1501039132257,,,,,,,,,0,1425,0,,,,,,,,,,,,,,,
3029724,1501039132267,3.2,,-0.02,0.02,0.87,-1,-8,3,0,1590,0,,,,,,,,,,,,,,,
3029734,1501039132277,,,,,,,,,0,1650,0,,,,,,,,,,,,,,,
3029744,1501039132287,,,,,,,,,0,1635,0,36.113674,-115.145676,0.0,6.475,2047.3,9,3,1.9,0,0.0,-1,0.0,0.0,0.0,0
3029754,1501039132297,,,,,,,,,0,1590,0,,,,,,,,,,,,,,,
3029764,1501039132307,3.2,,-0.03,-0.01,0.93,-1,-5,3,0,1560,0,,,,,,,,,,,,,,,
3029774,1501039132317,,,,,,,,,0,1530,0,,,,,,,,,,,,,,,
3029784,1501039132327,,,,,,,,,0,1500,0,,,,,,,,,,,,,,,
3029794,1501039132337,,,,,,,,,0,1425,0,,,,,,,,,,,,,,,
3029804,1501039132347,3.21,,-0.03,0.01,0.91,-2,-1,5,0,1575,0,,,,,,,,,,,,,,,
3029814,1501039132357,,,,,,,,,0,1650,0,,,,,,,,,,,,,,,
3029824,1501039132367,,,,,,,,,0,1635,0,,,,,,,,,,,,,,,
3029834,1501039132377,,,,,,,,,0,1590,0,,,,,,,,,,,,,,,
3029844,1501039132387,3.19,,-0.03,-0.03,0.97,-2,0,4,0,1560,0,36.113674,-115.145676,0.0,6.475,2047.3,9,3,1.9,0,0.0,-1,0.0,0.0,0.0,0
3029854,1501039132397,,,,,,,,,0,1530,0,,,,,,,,,,,,,,,
3029864,1501039132407,,,,,,,,,0,1500,0,,,,,,,,,,,,,,,
3029874,1501039132417,,,,,,,,,0,1410,0,,,,,,,,,,,,,,,
3029884,1501039132427,3.2,,-0.01,-0.03,1.08,-3,3,5,0,1575,0,,,,,,,,,,,,,,,
3029894,1501039132437,,,,,,,,,0,1650,0,,,,,,,,,,,,,,,
3029904,1501039132447,,,,,,,,,0,1590,0,,,,,,,,,,,,,,,
3029914,1501039132457,,,,,,,,,0,1560,0,,,,,,,,,,,,,,,
3029924,1501039132467,3.14,,0.01,-0.05,1.09,-3,0,5,0,1530,0,,,,,,,,,,,,,,,
3029934,1501039132477,,,,,,,,,0,1500,0,,,,,,,,,,,,,,,
3029944,1501039132487,,,,,,,,,0,1410,0,36.113674,-115.145676,0.0,6.475,2047.3,9,3,1.9,0,0.0,-1,0.0,0.0,0.0,0
3029954,1501039132497,,,,,,,,,0,1575,0,,,,,,,,,,,,,,,
3029964,1501039132507,3.19,,-0.01,-0.07,1.19,-2,2,5,0,1650,0,,,,,,,,,,,,,,,
3029974,1501039132517,,,,,,,,,0,1635,0,,,,,,,,,,,,,,,
3029984,1501039132527,,,,,,,,,0,1605,0,,,,,,,,,,,,,,,
3029994,1501039132537,,,,,,,,,0,1560,0,,,,,,,,,,,,,,,
3030004,1501039132547,3.2,,0.0,-0.03,1.14,-2,-2,4,0,1530,0,,,,,,,,,,,,,,,
3030014,1501039132557,,,,,,,,,0,1500,0,,,,,,,,,,,,,,,
3030024,1501039132567,,,,,,,,,0,1425,0,,,,,,,,,,,,,,,
3030034,1501039132577,,,,,,,,,0,1590,0,,,,,,,,,,,,,,,
3030044,1501039132587,3.23,4.49,0.02,-0.04,1.11,-1,-4,4,0,1650,0,36.113674,-115.145676,0.0,6.475,2047.3,9,3,1.9,0,0.0,-1,0.0,0.0,0.0,0
3030054,1501039132595,,,,,,,,,0,1635,0,,,,,,,,,,,,,,,
3030064,1501039132605,,,,,,,,,0,1605,0,,,,,,,,,,,,,,,
3030074,1501039132615,,,,,,,,,0,1560,0,,,,,,,,,,,,,,,
3030084,1501039132625,3.19,,0.01,-0.01,1.01,-1,-6,4,0,1530,0,,,,,,,,,,,,,,,
3030094,1501039132635,,,,,,,,,0,1500,0,,,,,,,,,,,,,,,
3030104,1501039132645,,,,,,,,,0,1425,0,,,,,,,,,,,,,,,
3030114,1501039132655,,,,,,,,,0,1575,0,,,,,,,,,,,,,,,
3030124,1501039132665,3.2,,0.04,-0.02,1.0,-1,-10,4,0,1665,0,,,,,,,,,,,,,,,
3030134,1501039132675,,,,,,,,,0,1605,0,,,,,,,,,,,,,,,
3030144,1501039132685,,,,,,,,,0,1560,0,36.113674,-115.145676,0.0,6.475,2047.3,9,3,1.9,0,0.0,-1,0.0,0.0,0.0,0
3030154,1501039132698,,,,,,,,,0,1530,0,,,,,,,,,,,,,,,
3030164,1501039132708,3.2,,-0.01,0.0,0.93,-2,-8,5,0,1530,0,,,,,,,,,,,,,,,
3030174,1501039132718,,,,,,,,,0,1425,0,,,,,,,,,,,,,,,
3030184,1501039132728,,,,,,,,,0,1590,0,,,,,,,,,,,,,,,
3030194,1501039132738,,,,,,,,,0,1665,0,,,,,,,,,,,,,,,
3030204,1501039132748,3.2,,-0.02,-0.0,0.9,-1,-10,3,0,1635,0,,,,,,,,,,,,,,,
3030214,1501039132758,,,,,,,,,0,1605,0,,,,,,,,,,,,,,,
3030224,1501039132768,,,,,,,,,0,1575,0,,,,,,,,,,,,,,,
3030234,1501039132778,,,,,,,,,0,1530,0,,,,,,,,,,,,,,,
3030244,1501039132788,3.2,,-0.04,-0.02,0.93,-1,-5,4,0,1500,0,36.113674,-115.145676,0.0,6.475,2047.3,9,3,1.9,0,0.0,-1,0.0,0.0,0.0,0
3030254,1501039132798,,,,,,,,,0,1425,0,,,,,,,,,,,,,,,
3030264,1501039132808,,,,,,,,,0,1590,0,,,,,,,,,,,,,,,
3030274,1501039132818,,,,,,,,,0,1665,0,,,,,,,,,,,,,,,
3030284,1501039132828,3.18,,-0.06,-0.01,0.94,-1,-4,4,0,1635,0,,,,,,,,,,,,,,,
3030294,1501039132838,,,,,,,,,0,1605,0,,,,,,,,,,,,,,,
3030304,1501039132848,,,,,,,,,0,1560,0,,,,,,,,,,,,,,,
3030314,1501039132858,,,,,,,,,0,1530,0,,,,,,,,,,,,,,,
3030324,1501039132868,3.2,,-0.03,-0.01,1.04,-3,-2,6,0,1500,0,,,,,,,,,,,,,,,
3030334,1501039132878,,,,,,,,,0,1425,0,,,,,,,,,,,,,,,
3030344,1501039132888,,,,,,,,,0,1590,0,36.113674,-115.145676,0.0,6.475,2047.3,9,3,1.9,0,0.0,-1,0.0,0.0,0.0,0
3030354,1501039132898,,,,,,,,,0,1650,0,,,,,,,,,,,,,,,
3030364,1501039132908,3.13,,-0.04,-0.03,1.06,-2,0,5,0,1605,0,,,,,,,,,,,,,,,
3030374,1501039132918,,,,,,,,,0,1560,0,,,,,,,,,,,,,,,
3030384,1501039132928,,,,,,,,,0,1530,0,,,,,,,,,,,,,,,
3030394,1501039132938,,,,,,,,,0,1500,0,,,,,,,,,,,,,,,
3030404,1501039132948,3.14,,-0.02,-0.04,1.18,-2,-2,4,0,1425,0,,,,,,,,,,,,,,,
3030414,1501039132958,,,,,,,,,0,1575,0,,,,,,,,,,,,,,,
3030424,1501039132968,,,,,,,,,0,1650,0,,,,,,,,,,,,,,,
3030434,1501039132978,,,,,,,,,0,1635,0,,,,,,,,,,,,,,,
3030444,1501039132988,3.19,,-0.02,-0.03,1.18,-2,-1,4,0,1590,0,36.113674,-115.145676,0.0,6.475,2047.3,9,3,1.9,0,0.0,-1,0.0,0.0,0.0,0
3030454,1501039132998,,,,,,,,,0,1560,0,,,,,,,,,,,,,,,
3030464,1501039133000,,,,,,,,,0,1530,0,,,,,,,,,,,,,,,
3030474,1501039133010,,,,,,,,,0,1500,0,,,,,,,,,,,,,,,
3030484,1501039133020,3.15,,-0.01,-0.03,1.12,-1,-4,4,0,1410,0,,,,,,,,,,,,,,,
3030494,1501039133030,,,,,,,,,0,1590,0,,,,,,,,,,,,,,,
3030504,1501039133040,,,,,,,,,0,1650,0,,,,,,,,,,,,,,,
3030514,1501039133050,,,,,,,,,0,1635,0,,,,,,,,,,,,,,,
3030524,1501039133060,3.2,,0.01,-0.01,1.04,-1,-5,5,0,1605,0,,,,,,,,,,,,,,,
3030534,1501039133070,,,,,,,,,0,1560,0,,,,,,,,,,,,,,,
3030544,1501039133080,,,,,,,,,0,1530,0,36.113674,-115.145676,0.0,6.475,2047.3,9,3,1.9,0,0.0,-1,0.0,0.0,0.0,0
3030554,1501039133096,,,,,,,,,0,1500,0,,,,,,,,,,,,,,,
3030564,1501039133106,3.15,,0.04,-0.02,0.98,-2,-10,5,0,1425,0,,,,,,,,,,,,,,,
3030574,1501039133116,,,,,,,,,0,1590,0,,,,,,,,,,,,,,,
3030584,1501039133126,,,,,,,,,0,1665,0,,,,,,,,,,,,,,,
3030594,1501039133136,,,,,,,,,0,1635,0,,,,,,,,,,,,,,,
3030604,1501039133146,3.13,,0.01,-0.0,0.96,-2,-10,5,0,1560,0,,,,,,,,,,,,,,,
3030614,1501039133156,,,,,,,,,0,1530,0,,,,,,,,,,,,,,,
3030624,1501039133166,,,,,,,,,0,1530,0,,,,,,,,,,,,,,,
3030634,1501039133176,,,,,,,,,0,1425,0,,,,,,,,,,,,,,,
3030644,1501039133186,3.18,,-0.02,0.01,0.92,-1,-11,3,0,1575,0,36.113674,-115.145676,0.0,6.475,2047.3,9,3,1.9,0,0.0,-1,0.0,0.0,0.0,0
3030654,1501039133198,,,,,,,,,0,1665,0,,,,,,,,,,,,,,,
3030664,1501039133208,,,,,,,,,0,1635,0,,,,,,,,,,,,,,,
3030674,1501039133218,,,,,,,,,0,1605,0,,,,,,,,,,,,,,,
3030684,1501039133228,3.19,,-0.03,-0.01,0.96,-2,-9,4,0,1560,0,,,,,,,,,,,,,,,
3030694,1501039133238,,,,,,,,,0,1530,0,,,,,,,,,,,,,,,
3030704,1501039133248,,,,,,,,,0,1500,0,,,,,,,,,,,,,,,
3030714,1501039133258,,,,,,,,,0,1425,0,,,,,,,,,,,,,,,
3030724,1501039133268,3.19,,-0.05,0.0,1.01,-2,-4,5,0,1590,0,,,,,,,,,,,,,,,
3030734,1501039133278,,,,,,,,,0,1665,0,,,,,,,,,,,,,,,
3030744,1501039133288,,,,,,,,,0,1635,0,36.113674,-115.145676,0.0,6.475,2047.3,9,3,1.9,0,0.0,-1,0.0,0.0,0.0,0
3030754,1501039133298,,,,,,,,,0,1605,0,,,,,,,,,,,,,,,
3030764,1501039133308,3.18,,-0.05,-0.03,1.05,-2,-3,4,0,1560,0,,,,,,,,,,,,,,,
3030774,1501039133318,,,,,,,,,0,1530,0,,,,,,,,,,,,,,,
3030784,1501039133328,,,,,,,,,0,1500,0,,,,,,,,,,,,,,,
3030794,1501039133338,,,,,,,,,0,1425,0,,,,,,,,,,,,,,,
3030804,1501039133348,3.19,,-0.03,-0.03,1.16,-2,1,5,0,1590,0,,,,,,,,,,,,,,,
3030814,1501039133358,,,,,,,,,0,1650,0,,,,,,,,,,,,,,,
3030824,1501039133368,,,,,,,,,0,1605,0,,,,,,,,,,,,,,,
3030834,1501039133378,,,,,,,,,0,1560,0,,,,,,,,,,,,,,,
3030844,1501039133388,3.14,,-0.01,-0.05,1.15,-2,-1,3,0,1530,0,36.113674,-115.145676,0.0,6.475,2047.3,9,3,1.9,0,0.0,-1,0.0,0.0,0.0,0
3030854,1501039133398,,,,,,,,,0,1500,0,,,,,,,,,,,,,,,
3030864,1501039133408,,,,,,,,,0,1425,0,,,,,,,,,,,,,,,
3030874,1501039133418,,,,,,,,,0,1590,0,,,,,,,,,,,,,,,
3030884,1501039133428,3.18,,-0.02,-0.05,1.22,-2,1,3,0,1665,0,,,,,,,,,,,,,,,
3030894,1501039133438,,,,,,,,,0,1635,0,,,,,,,,,,,,,,,
3030904,1501039133448,,,,,,,,,0,1605,0,,,,,,,,,,,,,,,
3030914,1501039133458,,,,,,,,,0,1560,0,,,,,,,,,,,,,,,
3030924,1501039133468,3.19,,-0.01,-0.02,1.16,-1,-3,2,0,1530,0,,,,,,,,,,,,,,,
3030934,1501039133478,,,,,,,,,0,1500,0,,,,,,,,,,,,,,,
3030944,1501039133488,,,,,,,,,0,1425,0,36.113674,-115.145676,0.0,6.475,2047.3,9,3,1.9,0,0.0,-1,0.0,0.0,0.0,0
3030954,1501039133498,,,,,,,,,0,1590,0,,,,,,,,,,,,,,,
3030964,1501039133508,3.21,,0.02,-0.03,1.11,-1,-5,2,0,1665,0,,,,,,,,,,,,,,,
3030974,1501039133518,,,,,,,,,0,1635,0,,,,,,,,,,,,,,,
3030984,1501039133528,,,,,,,,,0,1605,0,,,,,,,,,,,,,,,
3030994,1501039133538,,,,,,,,,0,1560,0,,,,,,,,,,,,,,,
3031004,1501039133548,3.2,,0.0,-0.0,1.03,-1,-6,3,0,1530,0,,,,,,,,,,,,,,,
3031014,1501039133558,,,,,,,,,0,1500,0,,,,,,,,,,,,,,,
3031024,1501039133568,,,,,,,,,0,1425,0,,,,,,,,,,,,,,,
3031034,1501039133578,,,,,,,,,0,1590,0,,,,,,,,,,,,,,,
3031044,1501039133588,3.2,4.49,0.02,-0.01,0.98,-1,-10,4,0,1650,0,36.113674,-115.145676,0.0,6.475,2047.3,9,3,1.9,0,0.0,-1,0.0,0.0,0.0,0
3031054,1501039133598,,,,,,,,,0,1605,0,,,,,,,,,,,,,,,
3031064,1501039133608,,,,,,,,,0,1560,0,,,,,,,,,,,,,,,
3031074,1501039133618,,,,,,,,,0,1530,0,,,,,,,,,,,,,,,
3031084,1501039133628,3.15,,-0.03,0.0,0.96,-1,-7,4,0,1500,0,,,,,,,,,,,,,,,
3031094,1501039133638,,,,,,,,,0,1425,0,,,,,,,,,,,,,,,
3031104,1501039133648,,,,,,,,,0,1575,0,,,,,,,,,,,,,,,
3031114,1501039133658,,,,,,,,,0,1650,0,,,,,,,,,,,,,,,
3031124,1501039133668,3.18,,-0.05,0.0,0.96,-1,-9,2,0,1635,0,,,,,,,,,,,,,,,
3031134,1501039133678,,,,,,,,,0,1590,0,,,,,,,,,,,,,,,
3031144,1501039133688,,,,,,,,,0,1560,0,36.113674,-115.145676,0.0,6.475,2047.3,9,3,1.9,0,0.0,-1,0.0,0.0,0.0,0
3031154,1501039133697,,,,,,,,,0,1530,0,,,,,,,,,,,,,,,
3031164,1501039133707,3.19,,-0.06,-0.02,1.0,-1,-4,3,0,1500,0,,,,,,,,,,,,,,,
3031174,1501039133717,,,,,,,,,0,1425,0,,,,,,,,,,,,,,,
3031184,1501039133727,,,,,,,,,0,1590,0,,,,,,,,,,,,,,,
3031194,1501039133737,,,,,,,,,0,1665,0,,,,,,,,,,,,,,,
3031204,1501039133747,3.18,,-0.08,-0.02,1.03,-1,-3,3,0,1635,0,,,,,,,,,,,,,,,
3031214,1501039133757,,,,,,,,,0,1605,0,,,,,,,,,,,,,,,
3031224,1501039133767,,,,,,,,,0,1560,0,,,,,,,,,,,,,,,
3031234,1501039133777,,,,,,,,,0,1530,0,,,,,,,,,,,,,,,
3031244,1501039133787,3.19,,-0.04,-0.04,1.18,-2,-1,5,0,1500,0,36.113674,-115.145676,0.0,6.475,2047.3,9,3,1.9,0,0.0,-1,0.0,0.0,0.0,0
3031254,1501039133797,,,,,,,,,0,1425,0,,,,,,,,,,,,,,,
3031264,1501039133807,,,,,,,,,0,1590,0,,,,,,,,,,,,,,,
3031274,1501039133817,,,,,,,,,0,1635,0,,,,,,,,,,,,,,,
3031284,1501039133827,3.13,,-0.04,-0.05,1.16,-2,1,5,0,1605,0,,,,,,,,,,,,,,,
3031294,1501039133837,,,,,,,,,0,1560,0,,,,,,,,,,,,,,,
3031304,1501039133847,,,,,,,,,0,1530,0,,,,,,,,,,,,,,,
3031314,1501039133857,,,,,,,,,0,1500,0,,,,,,,,,,,,,,,
3031324,1501039133867,3.14,,-0.02,-0.04,1.22,-1,-1,3,0,1425,0,,,,,,,,,,,,,,,
3031334,1501039133877,,,,,,,,,0,1575,0,,,,,,,,,,,,,,,
3031344,1501039133887,,,,,,,,,0,1665,0,36.113674,-115.145676,0.0,6.475,2047.3,9,3,1.9,0,0.0,-1,0.0,0.0,0.0,0
3031354,1501039133897,,,,,,,,,0,1635,0,,,,,,,,,,,,,,,
3031364,1501039133907,3.19,,-0.02,-0.02,1.22,-1,-1,2,0,1605,0,,,,,,,,,,,,,,,
3031374,1501039133917,,,,,,,,,0,1560,0,,,,,,,,,,,,,,,
3031384,1501039133927,,,,,,,,,0,1530,0,,,,,,,,,,,,,,,
3031394,1501039133937,,,,,,,,,0,1515,0,,,,,,,,,,,,,,,
3031404,1501039133947,3.17,,0.01,-0.04,1.14,-0,-4,3,0,1425,0,,,,,,,,,,,,,,,
3031414,1501039133957,,,,,,,,,0,1590,0,,,,,,,,,,,,,,,
3031424,1501039133967,,,,,,,,,0,1665,0,,,,,,,,,,,,,,,
3031434,1501039133977,,,,,,,,,0,1650,0,,,,,,,,,,,,,,,
3031444,1501039133987,3.2,,0.03,-0.02,1.07,-1,-6,3,0,1605,0,36.113674,-115.145676,0.0,6.475,2047.3,9,3,1.9,0,0.0,-1,0.0,0.0,0.0,0
3031454,1501039133991,,,,,,,,,0,1575,0,,,,,,,,,,,,,,,
3031464,1501039134001,,,,,,,,,0,1530,0,,,,,,,,,,,,,,,
3031474,1501039134011,,,,,,,,,0,1515,0,,,,,,,,,,,,,,,
3031484,1501039134021,3.18,,0.05,-0.01,0.99,-1,-9,2,0,1425,0,,,,,,,,,,,,,,,
3031494,1501039134031,,,,,,,,,0,1590,0,,,,,,,,,,,,,,,
3031504,1501039134041,,,,,,,,,0,1650,0,,,,,,,,,,,,,,,
3031514,1501039134051,,,,,,,,,0,1605,0,,,,,,,,,,,,,,,
3031524,1501039134061,3.17,,0.02,0.01,0.97,-1,-8,4,0,1575,0,,,,,,,,,,,,,,,
3031534,1501039134071,,,,,,,,,0,1545,0,,,,,,,,,,,,,,,
3031544,1501039134081,,,,,,,,,0,1515,0,36.113674,-115.145676,0.0,6.475,2047.3,9,3,1.9,0,0.0,-1,0.0,0.0,0.0,0
3031554,1501039134097,,,,,,,,,0,1425,0,,,,,,,,,,,,,,,
3031564,1501039134107,3.18,,-0.02,0.01,0.94,-1,-7,3,0,1590,0,,,,,,,,,,,,,,,
3031574,1501039134117,,,,,,,,,0,1665,0,,,,,,,,,,,,,,,
3031584,1501039134127,,,,,,,,,0,1635,0,,,,,,,,,,,,,,,
3031594,1501039134137,,,,,,,,,0,1605,0,,,,,,,,,,,,,,,
3031604,1501039134147,3.2,,-0.03,-0.02,1.0,-1,-5,2,0,1560,0,,,,,,,,,,,,,,,
3031614,1501039134157,,,,,,,,,0,1545,0,,,,,,,,,,,,,,,
3031624,1501039134167,,,,,,,,,0,1500,0,,,,,,,,,,,,,,,
3031634,1501039134177,,,,,,,,,0,1425,0,,,,,,,,,,,,,,,
3031644,1501039134187,3.19,,-0.03,0.0,0.99,-2,-1,3,0,1590,0,36.113674,-115.145676,0.0,6.475,2047.3,9,3,1.9,0,0.0,-1,0.0,0.0,0.0,0
3031654,1501039134197,,,,,,,,,0,1665,0,,,,,,,,,,,,,,,
3031664,1501039134207,,,,,,,,,0,1635,0,,,,,,,,,,,,,,,
3031674,1501039134217,,,,,,,,,0,1605,0,,,,,,,,,,,,,,,
3031684,1501039134227,3.19,,-0.02,-0.05,1.06,-2,-2,3,0,1560,0,,,,,,,,,,,,,,,
3031694,1501039134237,,,,,,,,,0,1530,0,,,,,,,,,,,,,,,
3031704,1501039134247,,,,,,,,,0,1500,0,,,,,,,,,,,,,,,
3031714,1501039134257,,,,,,,,,0,1425,0,,,,,,,,,,,,,,,
3031724,1501039134267,3.13,,-0.02,-0.04,1.18,-2,1,3,0,1665,0,,,,,,,,,,,,,,,
3031734,1501039134277,,,,,,,,,0,1635,0,,,,,,,,,,,,,,,
3031744,1501039134287,,,,,,,,,0,1605,0,36.113674,-115.145676,0.0,6.475,2047.3,9,3,1.9,0,0.0,-1,0.0,0.0,0.0,0
3031754,1501039134297,,,,,,,,,0,1575,0,,,,,,,,,,,,,,,
3031764,1501039134307,3.18,,-0.0,-0.04,1.12,-1,-2,2,0,1530,0,,,,,,,,,,,,,,,
3031774,1501039134317,,,,,,,,,0,1500,0,,,,,,,,,,,,,,,
3031784,1501039134327,,,,,,,,,0,1425,0,,,,,,,,,,,,,,,
3031794,1501039134337,,,,,,,,,0,1590,0,,,,,,,,,,,,,,,
3031804,1501039134347,3.2,,-0.01,-0.04,1.14,-1,-2,3,0,1665,0,,,,,,,,,,,,,,,
3031814,1501039134357,,,,,,,,,0,1635,0,,,,,,,,,,,,,,,
3031824,1501039134367,,,,,,,,,0,1605,0,,,,,,,,,,,,,,,
3031834,1501039134377,,,,,,,,,0,1560,0,,,,,,,,,,,,,,,
3031844,1501039134387,3.2,,-0.01,-0.01,1.07,-1,-4,3,0,1530,0,36.113674,-115.145676,0.0,6.475,2047.3,9,3,1.9,0,0.0,-1,0.0,0.0,0.0,0
3031854,1501039134397,,,,,,,,,0,1500,0,,,,,,,,,,,,,,,
3031864,1501039134407,,,,,,,,,0,1425,0,,,,,,,,,,,,,,,
3031874,1501039134417,,,,,,,,,0,1590,0,,,,,,,,,,,,,,,
3031884,1501039134427,3.22,,0.04,-0.03,1.04,-0,-8,3,0,1665,0,,,,,,,,,,,,,,,
3031894,1501039134437,,,,,,,,,0,1635,0,,,,,,,,,,,,,,,
3031904,1501039134447,,,,,,,,,0,1605,0,,,,,,,,,,,,,,,
3031914,1501039134457,,,,,,,,,0,1560,0,,,,,,,,,,,,,,,
3031924,1501039134467,3.19,,0.01,-0.01,0.96,-1,-7,4,0,1530,0,,,,,,,,,,,,,,,
3031934,1501039134477,,,,,,,,,0,1500,0,,,,,,,,,,,,,,,
3031944,1501039134487,,,,,,,,,0,1590,0,36.113674,-115.145676,0.0,6.475,2047.3,9,3,1.9,0,0.0,-1,0.0,0.0,0.0,0
3031954,1501039134497,,,,,,,,,0,1665,0,,,,,,,,,,,,,,,
3031964,1501039134507,3.19,,0.0,0.0,0.93,-1,-10,5,0,1635,0,,,,,,,,,,,,,,,
3031974,1501039134517,,,,,,,,,0,1605,0,,,,,,,,,,,,,,,
3031984,1501039134527,,,,,,,,,0,1575,0,,,,,,,,,,,,,,,
3031994,1501039134537,,,,,,,,,0,1545,0,,,,,,,,,,,,,,,
3032004,1501039134547,3.2,,-0.03,-0.0,0.91,-1,-6,5,0,1500,0,,,,,,,,,,,,,,,
3032014,1501039134557,,,,,,,,,0,1425,0,,,,,,,,,,,,,,,
3032024,1501039134567,,,,,,,,,0,1590,0,,,,,,,,,,,,,,,
3032034,1501039134577,,,,,,,,,0,1665,0,,,,,,,,,,,,,,,
3032044,1501039134587,3.17,4.49,-0.05,0.0,0.86,-1,-5,4,0,1635,0,36.113674,-115.145676,0.0,6.475,2047.3,9,3,1.9,0,0.0,-1,0.0,0.0,0.0,0
3032054,1501039134597,,,,,,,,,0,1605,0,,,,,,,,,,,,,,,
3032064,1501039134607,,,,,,,,,0,1560,0,,,,,,,,,,,,,,,
3032074,1501039134617,,,,,,,,,0,1545,0,,,,,,,,,,,,,,,
3032084,1501039134627,3.19,,-0.03,-0.01,0.92,-2,-1,5,0,1500,0,,,,,,,,,,,,,,,
3032094,1501039134637,,,,,,,,,0,1425,0,,,,,,,,,,,,,,,
3032104,1501039134647,,,,,,,,,0,1590,0,,,,,,,,,,,,,,,
3032114,1501039134657,,,,,,,,,0,1665,0,,,,,,,,,,,,,,,
3032124,1501039134667,3.17,,-0.03,-0.03,0.9,-2,0,5,0,1635,0,,,,,,,,,,,,,,,
3032134,1501039134677,,,,,,,,,0,1575,0,,,,,,,,,,,,,,,
3032144,1501039134687,,,,,,,,,0,1545,0,36.113674,-115.145676,0.0,6.475,2047.3,9,3,1.9,0,0.0,-1,0.0,0.0,0.0,0
3032154,1501039134698,,,,,,,,,0,1515,0,,,,,,,,,,,,,,,
3032164,1501039134708,3.15,,-0.01,-0.04,1.05,-2,-1,4,0,1425,0,,,,,,,,,,,,,,,
3032174,1501039134718,,,,,,,,,0,1590,0,,,,,,,,,,,,,,,
3032184,1501039134728,,,,,,,,,0,1665,0,,,,,,,,,,,,,,,
3032194,1501039134738,,,,,,,,,0,1635,0,,,,,,,,,,,,,,,
3032204,1501039134748,3.2,,-0.02,-0.03,1.07,-1,-1,3,0,1605,0,,,,,,,,,,,,,,,
3032214,1501039134758,,,,,,,,,0,1560,0,,,,,,,,,,,,,,,
3032224,1501039134768,,,,,,,,,0,1530,0,,,,,,,,,,,,,,,
3032234,1501039134778,,,,,,,,,0,1500,0,,,,,,,,,,,,,,,
3032244,1501039134788,3.19,,-0.0,-0.04,1.03,-0,-4,3,0,1425,0,36.113674,-115.145676,0.0,6.475,2047.3,9,3,1.9,0,0.0,-1,0.0,0.0,0.0,0
3032254,1501039134798,,,,,,,,,0,1590,0,,,,,,,,,,,,,,,
3032264,1501039134808,,,,,,,,,0,1665,0,,,,,,,,,,,,,,,
3032274,1501039134818,,,,,,,,,0,1635,0,,,,,,,,,,,,,,,
3032284,1501039134828,3.2,,0.03,-0.02,0.97,-1,-5,4,0,1605,0,,,,,,,,,,,,,,,
3032294,1501039134838,,,,,,,,,0,1560,0,,,,,,,,,,,,,,,
3032304,1501039134848,,,,,,,,,0,1530,0,,,,,,,,,,,,,,,
3032314,1501039134858,,,,,,,,,0,1500,0,,,,,,,,,,,,,,,
3032324,1501039134868,3.19,,0.05,-0.03,0.94,-1,-9,4,0,1425,0,,,,,,,,,,,,,,,
3032334,1501039134878,,,,,,,,,0,1590,0,,,,,,,,,,,,,,,
3032344,1501039134888,,,,,,,,,0,1635,0,36.113674,-115.145676,0.0,6.475,2047.3,9,3,1.9,0,0.0,-1,0.0,0.0,0.0,0
3032354,1501039134896,,,,,,,,,0,1605,0,,,,,,,,,,,,,,,
3032364,1501039134906,3.13,,0.04,-0.01,0.91,-1,-9,4,0,1575,0,,,,,,,,,,,,,,,
3032374,1501039134916,,,,,,,,,0,1530,0,,,,,,,,,,,,,,,
3032384,1501039134926,,,,,,,,,0,1515,0,,,,,,,,,,,,,,,
3032394,1501039134936,,,,,,,,,0,1425,0,,,,,,,,,,,,,,,
3032404,1501039134946,3.2,,-0.01,0.0,0.87,-1,-9,2,0,1590,0,,,,,,,,,,,,,,,
3032414,1501039134956,,,,,,,,,0,1665,0,,,,,,,,,,,,,,,
3032424,1501039134966,,,,,,,,,0,1635,0,,,,,,,,,,,,,,,
3032434,1501039134976,,,,,,,,,0,1605,0,,,,,,,,,,,,,,,
3032444,1501039134986,3.2,,-0.02,-0.01,0.94,-1,-7,3,0,1560,0,36.113674,-115.145676,0.0,6.475,2047.3,9,3,1.9,0,0.0,-1,0.0,0.0,0.0,0
3032454,1501039134992,,,,,,,,,0,1530,0,,,,,,,,,,,,,,,
3032464,1501039135002,,,,,,,,,0,1500,0,,,,,,,,,,,,,,,
3032474,1501039135012,,,,,,,,,0,1425,0,,,,,,,,,,,,,,,
3032484,1501039135022,3.2,,-0.04,0.01,0.96,-2,-4,5,0,1590,0,,,,,,,,,,,,,,,
3032494,1501039135032,,,,,,,,,0,1650,0,,,,,,,,,,,,,,,
3032504,1501039135042,,,,,,,,,0,1620,0,,,,,,,,,,,,,,,
3032514,1501039135052,,,,,,,,,0,1605,0,,,,,,,,,,,,,,,
3032524,1501039135062,3.17,,-0.03,-0.05,1.04,-2,-2,5,0,1560,0,,,,,,,,,,,,,,,
3032534,1501039135072,,,,,,,,,0,1530,0,,,,,,,,,,,,,,,
3032544,1501039135082,,,,,,,,,0,1500,0,36.113674,-115.145676,0.0,6.475,2047.3,9,3,1.9,0,0.0,-1,0.0,0.0,0.0,0
3032554,1501039135096,,,,,,,,,0,1425,0,,,,,,,,,,,,,,,
3032564,1501039135106,3.18,,-0.02,-0.03,1.17,-2,1,5,0,1590,0,,,,,,,,,,,,,,,
3032574,1501039135116,,,,,,,,,0,1635,0,,,,,,,,,,,,,,,
3032584,1501039135126,,,,,,,,,0,1605,0,,,,,,,,,,,,,,,
3032594,1501039135136,,,,,,,,,0,1560,0,,,,,,,,,,,,,,,
3032604,1501039135146,3.14,,-0.01,-0.04,1.14,-2,-1,4,0,1530,0,,,,,,,,,,,,,,,
3032614,1501039135156,,,,,,,,,0,1500,0,,,,,,,,,,,,,,,
3032624,1501039135166,,,,,,,,,0,1425,0,,,,,,,,,,,,,,,
3032634,1501039135176,,,,,,,,,0,1575,0,,,,,,,,,,,,,,,
3032644,1501039135186,3.18,,-0.02,-0.04,1.2,-2,0,4,0,1650,0,36.113674,-115.145676,0.0,6.475,2047.3,9,3,1.9,0,0.0,-1,0.0,0.0,0.0,0
3032654,1501039135198,,,,,,,,,0,1635,0,,,,,,,,,,,,,,,
3032664,1501039135208,,,,,,,,,0,1605,0,,,,,,,,,,,,,,,
3032674,1501039135218,,,,,,,,,0,1560,0,,,,,,,,,,,,,,,
3032684,1501039135228,3.19,,-0.01,-0.01,1.15,-1,-3,3,0,1530,0,,,,,,,,,,,,,,,
3032694,1501039135238,,,,,,,,,0,1500,0,,,,,,,,,,,,,,,
3032704,1501039135248,,,,,,,,,0,1425,0,,,,,,,,,,,,,,,
3032714,1501039135258,,,,,,,,,0,1575,0,,,,,,,,,,,,,,,
3032724,1501039135268,3.21,,0.02,-0.03,1.13,-0,-5,3,0,1665,0,,,,,,,,,,,,,,,
3032734,1501039135278,,,,,,,,,0,1635,0,,,,,,,,,,,,,,,
3032744,1501039135288,,,,,,,,,0,1605,0,36.113674,-115.145676,0.0,6.475,2047.3,9,3,1.9,0,0.0,-1,0.0,0.0,0.0,0
3032754,1501039135298,,,,,,,,,0,1575,0,,,,,,,,,,,,,,,
3032764,1501039135308,3.18,,0.01,-0.0,1.04,-0,-6,3,0,1530,0,,,,,,,,,,,,,,,
3032774,1501039135318,,,,,,,,,0,1500,0,,,,,,,,,,,,,,,
3032784,1501039135328,,,,,,,,,0,1425,0,,,,,,,,,,,,,,,
3032794,1501039135338,,,,,,,,,0,1590,0,,,,,,,,,,,,,,,
3032804,1501039135348,3.16,,0.02,-0.01,1.01,-1,-10,4,0,1635,0,,,,,,,,,,,,,,,
3032814,1501039135358,,,,,,,,,0,1605,0,,,,,,,,,,,,,,,
3032824,1501039135368,,,,,,,,,0,1560,0,,,,,,,,,,,,,,,
3032834,1501039135378,,,,,,,,,0,1530,0,,,,,,,,,,,,,,,
3032844,1501039135388,3.15,,-0.03,-0.01,1.01,-2,-7,4,0,1500,0,36.113674,-115.145676,0.0,6.475,2047.3,9,3,1.9,0,0.0,-1,0.0,0.0,0.0,0
3032854,1501039135398,,,,,,,,,0,1425,0,,,,,,,,,,,,,,,
3032864,1501039135408,,,,,,,,,0,1590,0,,,,,,,,,,,,,,,
3032874,1501039135418,,,,,,,,,0,1650,0,,,,,,,,,,,,,,,
3032884,1501039135428,3.18,,-0.05,-0.01,1.0,-1,-10,4,0,1635,0,,,,,,,,,,,,,,,
3032894,1501039135438,,,,,,,,,0,1605,0,,,,,,,,,,,,,,,
3032904,1501039135448,,,,,,,,,0,1560,0,,,,,,,,,,,,,,,
3032914,1501039135458,,,,,,,,,0,1530,0,,,,,,,,,,,,,,,
3032924,1501039135468,3.19,,-0.05,-0.02,1.01,-1,-5,4,0,1500,0,,,,,,,,,,,,,,,
3032934,1501039135478,,,,,,,,,0,1425,0,,,,,,,,,,,,,,,
3032944,1501039135488,,,,,,,,,0,1590,0,36.113674,-115.145676,0.0,6.475,2047.3,9,3,1.9,0,0.0,-1,0.0,0.0,0.0,0
3032954,1501039135498,,,,,,,,,0,1650,0,,,,,,,,,,,,,,,
3032964,1501039135508,3.15,,-0.05,-0.04,0.98,-1,-3,4,0,1635,0,,,,,,,,,,,,,,,
3032974,1501039135518,,,,,,,,,0,1605,0,,,,,,,,,,,,,,,
3032984,1501039135528,,,,,,,,,0,1560,0,,,,,,,,,,,,,,,
3032994,1501039135538,,,,,,,,,0,1530,0,,,,,,,,,,,,,,,
3033004,1501039135548,3.2,,-0.01,-0.04,1.14,-2,-2,5,0,1500,0,,,,,,,,,,,,,,,
3033014,1501039135558,,,,,,,,,0,1425,0,,,,,,,,,,,,,,,
3033024,1501039135568,,,,,,,,,0,1590,0,,,,,,,,,,,,,,,
3033034,1501039135578,,,,,,,,,0,1635,0,,,,,,,,,,,,,,,
3033044,1501039135588,3.13,4.5,-0.03,-0.05,1.12,-2,-0,4,0,1590,0,36.113674,-115.145676,0.0,6.475,2047.3,9,3,1.9,0,0.0,-1,0.0,0.0,0.0,0
3033054,1501039135598,,,,,,,,,0,1560,0,,,,,,,,,,,,,,,
3033064,1501039135608,,,,,,,,,0,1530,0,,,,,,,,,,,,,,,
3033074,1501039135618,,,,,,,,,0,1500,0,,,,,,,,,,,,,,,
3033084,1501039135628,3.19,,-0.02,-0.03,1.12,-1,-3,2,0,1425,0,,,,,,,,,,,,,,,
3033094,1501039135638,,,,,,,,,0,1590,0,,,,,,,,,,,,,,,
3033104,1501039135648,,,,,,,,,0,1650,0,,,,,,,,,,,,,,,
3033114,1501039135658,,,,,,,,,0,1635,0,,,,,,,,,,,,,,,
3033124,1501039135668,3.19,,-0.02,-0.01,1.12,-1,-2,3,0,1605,0,,,,,,,,,,,,,,,
3033134,1501039135678,,,,,,,,,0,1560,0,,,,,,,,,,,,,,,
3033144,1501039135688,,,,,,,,,0,1530,0,36.113674,-115.145676,0.0,6.475,2047.3,9,3,1.9,0,0.0,-1,0.0,0.0,0.0,0
3033154,1501039135697,,,,,,,,,0,1500,0,,,,,,,,,,,,,,,
3033164,1501039135707,3.17,,0.0,-0.03,1.06,-1,-5,4,0,1425,0,,,,,,,,,,,,,,,
3033174,1501039135717,,,,,,,,,0,1575,0,,,,,,,,,,,,,,,
3033184,1501039135727,,,,,,,,,0,1650,0,,,,,,,,,,,,,,,
3033194,1501039135737,,,,,,,,,0,1635,0,,,,,,,,,,,,,,,
3033204,1501039135747,3.21,,0.03,-0.02,1.02,-1,-6,3,0,1605,0,,,,,,,,,,,,,,,
3033214,1501039135757,,,,,,,,,0,1560,0,,,,,,,,,,,,,,,
3033224,1501039135767,,,,,,,,,0,1530,0,,,,,,,,,,,,,,,
3033234,1501039135777,,,,,,,,,0,1500,0,,,,,,,,,,,,,,,
3033244,1501039135787,3.18,,0.04,-0.01,0.94,-1,-9,3,0,1425,0,36.113674,-115.145676,0.0,6.475,2047.3,9,3,1.9,0,0.0,-1,0.0,0.0,0.0,0
3033254,1501039135797,,,,,,,,,0,1590,0,,,,,,,,,,,,,,,
3033264,1501039135807,,,,,,,,,0,1635,0,,,,,,,,,,,,,,,
3033274,1501039135817,,,,,,,,,0,1605,0,,,,,,,,,,,,,,,
3033284,1501039135827,3.19,,0.01,-0.0,0.94,-1,-9,4,0,1560,0,,,,,,,,,,,,,,,
3033294,1501039135837,,,,,,,,,0,1530,0,,,,,,,,,,,,,,,
3033304,1501039135847,,,,,,,,,0,1500,0,,,,,,,,,,,,,,,
3033314,1501039135857,,,,,,,,,0,1425,0,,,,,,,,,,,,,,,
3033324,1501039135867,3.2,,-0.03,0.01,0.92,-1,-9,3,0,1590,0,,,,,,,,,,,,,,,
3033334,1501039135877,,,,,,,,,0,1665,0,,,,,,,,,,,,,,,
3033344,1501039135887,,,,,,,,,0,1635,0,36.113674,-115.145676,0.0,6.475,2047.3,9,3,1.9,0,0.0,-1,0.0,0.0,0.0,0
3033354,1501039135897,,,,,,,,,0,1605,0,,,,,,,,,,,,,,,
3033364,1501039135907,3.19,,-0.04,-0.01,0.99,-1,-7,3,0,1560,0,,,,,,,,,,,,,,,
3033374,1501039135917,,,,,,,,,0,1530,0,,,,,,,,,,,,,,,
3033384,1501039135927,,,,,,,,,0,1500,0,,,,,,,,,,,,,,,
3033394,1501039135937,,,,,,,,,0,1425,0,,,,,,,,,,,,,,,
3033404,1501039135947,3.21,,-0.05,0.01,1.01,-2,-4,5,0,1590,0,,,,,,,,,,,,,,,
3033414,1501039135957,,,,,,,,,0,1650,0,,,,,,,,,,,,,,,
3033424,1501039135967,,,,,,,,,0,1635,0,,,,,,,,,,,,,,,
3033434,1501039135977,,,,,,,,,0,1605,0,,,,,,,,,,,,,,,
3033444,1501039135987,3.17,,-0.03,-0.04,1.07,-1,-3,4,0,1560,0,36.113674,-115.145676,0.0,6.475,2047.3,9,3,1.9,0,0.0,-1,0.0,0.0,0.0,0
3033454,1501039135991,,,,,,,,,0,1530,0,,,,,,,,,,,,,,,
3033464,1501039136001,,,,,,,,,0,1500,0,,,,,,,,,,,,,,,
3033474,1501039136011,,,,,,,,,0,1425,0,,,,,,,,,,,,,,,
3033484,1501039136021,3.17,,-0.01,-0.03,1.19,-3,1,6,0,1575,0,,,,,,,,,,,,,,,
3033494,1501039136031,,,,,,,,,0,1635,0,,,,,,,,,,,,,,,
3033504,1501039136041,,,,,,,,,0,1605,0,,,,,,,,,,,,,,,
3033514,1501039136051,,,,,,,,,0,1560,0,,,,,,,,,,,,,,,
3033524,1501039136061,3.17,,-0.0,-0.04,1.15,-2,-2,5,0,1530,0,,,,,,,,,,,,,,,
3033534,1501039136071,,,,,,,,,0,1500,0,,,,,,,,,,,,,,,
3033544,1501039136081,,,,,,,,,0,1425,0,36.113674,-115.145676,0.0,6.475,2047.3,9,3,1.9,0,0.0,-1,0.0,0.0,0.0,0
3033554,1501039136097,,,,,,,,,0,1590,0,,,,,,,,,,,,,,,
3033564,1501039136107,3.17,,-0.01,-0.03,1.18,-2,-1,4,0,1650,0,,,,,,,,,,,,,,,
3033574,1501039136117,,,,,,,,,0,1635,0,,,,,,,,,,,,,,,
3033584,1501039136127,,,,,,,,,0,1590,0,,,,,,,,,,,,,,,
3033594,1501039136137,,,,,,,,,0,1560,0,,,,,,,,,,,,,,,
3033604,1501039136147,3.2,,-0.01,0.0,1.12,-1,-4,4,0,1530,0,,,,,,,,,,,,,,,
3033614,1501039136157,,,,,,,,,0,1500,0,,,,,,,,,,,,,,,
3033624,1501039136167,,,,,,,,,0,1425,0,,,,,,,,,,,,,,,
3033634,1501039136177,,,,,,,,,0,1575,0,,,,,,,,,,,,,,,
3033644,1501039136187,3.21,,0.02,-0.02,1.07,-1,-6,3,0,1650,0,36.113674,-115.145676,0.0,6.475,2047.3,9,3,1.9,0,0.0,-1,0.0,0.0,0.0,0
3033654,1501039136197,,,,,,,,,0,1635,0,,,,,,,,,,,,,,,
3033664,1501039136207,,,,,,,,,0,1605,0,,,,,,,,,,,,,,,
3033674,1501039136217,,,,,,,,,0,1560,0,,,,,,,,,,,,,,,
3033684,1501039136227,3.2,,0.01,0.0,0.99,-1,-8,4,0,1530,0,,,,,,,,,,,,,,,
3033694,1501039136237,,,,,,,,,0,1500,0,,,,,,,,,,,,,,,
3033704,1501039136247,,,,,,,,,0,1425,0,,,,,,,,,,,,,,,
3033714,1501039136257,,,,,,,,,0,1575,0,,,,,,,,,,,,,,,
3033724,1501039136267,3.16,,0.02,0.01,0.98,-1,-11,5,0,1635,0,,,,,,,,,,,,,,,
3033734,1501039136277,,,,,,,,,0,1605,0,,,,,,,,,,,,,,,
3033744,1501039136287,,,,,,,,,0,1560,0,36.113674,-115.145676,0.0,6.475,2047.3,9,3,1.9,0,0.0,-1,0.0,0.0,0.0,0
3033754,1501039136297,,,,,,,,,0,1530,0,,,,,,,,,,,,,,,
3033764,1501039136307,3.15,,-0.03,0.01,0.96,-2,-8,5,0,1500,0,,,,,,,,,,,,,,,
3033774,1501039136317,,,,,,,,,0,1425,0,,,,,,,,,,,,,,,
3033784,1501039136327,,,,,,,,,0,1575,0,,,,,,,,,,,,,,,
3033794,1501039136337,,,,,,,,,0,1650,0,,,,,,,,,,,,,,,
3033804,1501039136347,3.18,,-0.05,0.0,0.95,-1,-10,4,0,1635,0,,,,,,,,,,,,,,,
3033814,1501039136357,,,,,,,,,0,1590,0,,,,,,,,,,,,,,,
3033824,1501039136367,,,,,,,,,0,1560,0,,,,,,,,,,,,,,,
3033834,1501039136377,,,,,,,,,0,1530,0,,,,,,,,,,,,,,,
3033844,1501039136387,3.19,,-0.05,-0.02,0.99,-1,-5,4,0,1500,0,36.113674,-115.145676,0.0,6.475,2047.3,9,3,1.9,0,0.0,-1,0.0,0.0,0.0,0
3033854,1501039136397,,,,,,,,,0,1425,0,,,,,,,,,,,,,,,
3033864,1501039136407,,,,,,,,,0,1575,0,,,,,,,,,,,,,,,
3033874,1501039136417,,,,,,,,,0,1650,0,,,,,,,,,,,,,,,
3033884,1501039136427,3.18,,-0.07,-0.02,0.99,-1,-4,4,0,1620,0,,,,,,,,,,,,,,,
3033894,1501039136437,,,,,,,,,0,1590,0,,,,,,,,,,,,,,,
3033904,1501039136447,,,,,,,,,0,1560,0,,,,,,,,,,,,,,,
3033914,1501039136457,,,,,,,,,0,1530,0,,,,,,,,,,,,,,,
3033924,1501039136467,3.19,,-0.04,-0.02,1.08,-2,-2,5,0,1500,0,,,,,,,,,,,,,,,
3033934,1501039136477,,,,,,,,,0,1425,0,,,,,,,,,,,,,,,
3033944,1501039136487,,,,,,,,,0,1575,0,36.113674,-115.145676,0.0,6.475,2047.3,9,3,1.9,0,0.0,-1,0.0,0.0,0.0,0
3033954,1501039136497,,,,,,,,,0,1650,0,,,,,,,,,,,,,,,
3033964,1501039136507,3.13,,-0.05,-0.03,1.08,-2,1,4,0,1605,0,,,,,,,,,,,,,,,
3033974,1501039136517,,,,,,,,,0,1560,0,,,,,,,,,,,,,,,
3033984,1501039136527,,,,,,,,,0,1530,0,,,,,,,,,,,,,,,
3033994,1501039136537,,,,,,,,,0,1500,0,,,,,,,,,,,,,,,
3034004,1501039136547,3.14,,-0.03,-0.05,1.18,-1,-2,3,0,1425,0,,,,,,,,,,,,,,,
3034014,1501039136557,,,,,,,,,0,1590,0,,,,,,,,,,,,,,,
3034024,1501039136567,,,,,,,,,0,1665,0,,,,,,,,,,,,,,,
3034034,1501039136577,,,,,,,,,0,1635,0,,,,,,,,,,,,,,,
3034044,1501039136587,3.19,4.51,-0.03,-0.03,1.17,-1,-1,2,0,1605,0,36.113674,-115.145676,0.0,6.475,2047.3,9,3,1.9,0,0.0,-1,0.0,0.0,0.0,0
3034054,1501039136597,,,,,,,,,0,1560,0,,,,,,,,,,,,,,,
3034064,1501039136607,,,,,,,,,0,1530,0,,,,,,,,,,,,,,,
3034074,1501039136617,,,,,,,,,0,1500,0,,,,,,,,,,,,,,,
3034084,1501039136627,3.16,,-0.01,-0.04,1.13,-1,-3,3,0,1425,0,,,,,,,,,,,,,,,
3034094,1501039136637,,,,,,,,,0,1590,0,,,,,,,,,,,,,,,
3034104,1501039136647,,,,,,,,,0,1665,0,,,,,,,,,,,,,,,
3034114,1501039136657,,,,,,,,,0,1635,0,,,,,,,,,,,,,,,
3034124,1501039136667,3.2,,0.02,-0.02,1.05,-1,-5,3,0,1605,0,,,,,,,,,,,,,,,
3034134,1501039136677,,,,,,,,,0,1560,0,,,,,,,,,,,,,,,
3034144,1501039136687,,,,,,,,,0,1545,0,36.113674,-115.145676,0.0,6.475,2047.3,9,3,1.9,0,0.0,-1,0.0,0.0,0.0,0
3034154,1501039136696,,,,,,,,,0,1500,0,,,,,,,,,,,,,,,
3034164,1501039136706,3.17,,0.05,-0.02,1.01,-1,-8,3,0,1425,0,,,,,,,,,,,,,,,
3034174,1501039136716,,,,,,,,,0,1590,0,,,,,,,,,,,,,,,
3034184,1501039136726,,,,,,,,,0,1635,0,,,,,,,,,,,,,,,
3034194,1501039136736,,,,,,,,,0,1605,0,,,,,,,,,,,,,,,
3034204,1501039136746,3.19,,0.03,-0.01,0.98,-1,-8,3,0,1560,0,,,,,,,,,,,,,,,
3034214,1501039136756,,,,,,,,,0,1545,0,,,,,,,,,,,,,,,
3034224,1501039136766,,,,,,,,,0,1500,0,,,,,,,,,,,,,,,
3034234,1501039136776,,,,,,,,,0,1425,0,,,,,,,,,,,,,,,
3034244,1501039136786,3.19,,-0.01,0.01,0.96,-1,-8,2,0,1590,0,36.113674,-115.145676,0.0,6.475,2047.3,9,3,1.9,0,0.0,-1,0.0,0.0,0.0,0
3034254,1501039136798,,,,,,,,,0,1665,0,,,,,,,,,,,,,,,
3034264,1501039136808,,,,,,,,,0,1635,0,,,,,,,,,,,,,,,
3034274,1501039136818,,,,,,,,,0,1605,0,,,,,,,,,,,,,,,
3034284,1501039136828,3.2,,-0.02,-0.02,1.01,-1,-6,3,0,1560,0,,,,,,,,,,,,,,,
3034294,1501039136838,,,,,,,,,0,1530,0,,,,,,,,,,,,,,,
3034304,1501039136848,,,,,,,,,0,1500,0,,,,,,,,,,,,,,,
3034314,1501039136858,,,,,,,,,0,1425,0,,,,,,,,,,,,,,,
3034324,1501039136868,3.19,,-0.03,0.0,0.99,-2,-3,4,0,1575,0,,,,,,,,,,,,,,,
3034334,1501039136878,,,,,,,,,0,1650,0,,,,,,,,,,,,,,,
3034344,1501039136888,,,,,,,,,0,1635,0,36.113674,-115.145676,0.0,6.475,2047.3,9,3,1.9,0,0.0,-1,0.0,0.0,0.0,0
3034354,1501039136898,,,,,,,,,0,1605,0,,,,,,,,,,,,,,,
3034364,1501039136908,3.19,,-0.02,-0.06,1.06,-2,-2,4,0,1560,0,,,,,,,,,,,,,,,
3034374,1501039136918,,,,,,,,,0,1530,0,,,,,,,,,,,,,,,
3034384,1501039136928,,,,,,,,,0,1500,0,,,,,,,,,,,,,,,
3034394,1501039136938,,,,,,,,,0,1425,0,,,,,,,,,,,,,,,
3034404,1501039136948,3.16,,-0.02,-0.04,1.17,-3,2,5,0,1590,0,,,,,,,,,,,,,,,
3034414,1501039136958,,,,,,,,,0,1635,0,,,,,,,,,,,,,,,
3034424,1501039136968,,,,,,,,,0,1605,0,,,,,,,,,,,,,,,
3034434,1501039136978,,,,,,,,,0,1560,0,,,,,,,,,,,,,,,
3034444,1501039136988,3.17,,-0.01,-0.04,1.13,-2,-1,4,0,1530,0,36.113674,-115.145676,0.0,6.475,2047.3,9,3,1.9,0,0.0,-1,0.0,0.0,0.0,0
3034454,1501039136998,,,,,,,,,0,1500,0,,,,,,,,,,,,,,,
3034464,1501039137000,,,,,,,,,0,1425,0,,,,,,,,,,,,,,,
3034474,1501039137010,,,,,,,,,0,1575,0,,,,,,,,,,,,,,,
3034484,1501039137020,3.17,,-0.02,-0.03,1.14,-2,0,5,0,1650,0,,,,,,,,,,,,,,,
3034494,1501039137030,,,,,,,,,0,1635,0,,,,,,,,,,,,,,,
3034504,1501039137040,,,,,,,,,0,1605,0,,,,,,,,,,,,,,,
3034514,1501039137050,,,,,,,,,0,1560,0,,,,,,,,,,,,,,,
3034524,1501039137060,3.19,,-0.02,-0.0,1.08,-1,-3,5,0,1530,0,,,,,,,,,,,,,,,
3034534,1501039137070,,,,,,,,,0,1500,0,,,,,,,,,,,,,,,
3034544,1501039137080,,,,,,,,,0,1410,0,36.113674,-115.145676,0.0,6.475,2047.3,9,3,1.9,0,0.0,-1,0.0,0.0,0.0,0
3034554,1501039137098,,,,,,,,,0,1590,0,,,,,,,,,,,,,,,
3034564,1501039137108,3.2,,0.03,-0.03,1.04,-1,-5,4,0,1665,0,,,,,,,,,,,,,,,
3034574,1501039137118,,,,,,,,,0,1635,0,,,,,,,,,,,,,,,
3034584,1501039137128,,,,,,,,,0,1605,0,,,,,,,,,,,,,,,
3034594,1501039137138,,,,,,,,,0,1575,0,,,,,,,,,,,,,,,
3034604,1501039137148,3.19,,0.02,-0.0,0.98,-1,-6,4,0,1530,0,,,,,,,,,,,,,,,
3034614,1501039137158,,,,,,,,,0,1500,0,,,,,,,,,,,,,,,
3034624,1501039137168,,,,,,,,,0,1425,0,,,,,,,,,,,,,,,
3034634,1501039137178,,,,,,,,,0,1575,0,,,,,,,,,,,,,,,
3034644,1501039137188,3.15,,0.02,-0.0,0.94,-1,-10,4,0,1635,0,36.113674,-115.145676,0.0,6.475,2047.3,9,3,1.9,0,0.0,-1,0.0,0.0,0.0,0
3034654,1501039137198,,,,,,,,,0,1605,0,,,,,,,,,,,,,,,
3034664,1501039137208,,,,,,,,,0,1560,0,,,,,,,,,,,,,,,
3034674,1501039137218,,,,,,,,,0,1530,0,,,,,,,,,,,,,,,
3034684,1501039137228,3.15,,-0.02,-0.0,0.93,-2,-7,4,0,1500,0,,,,,,,,,,,,,,,
3034694,1501039137238,,,,,,,,,0,1425,0,,,,,,,,,,,,,,,
3034704,1501039137248,,,,,,,,,0,1590,0,,,,,,,,,,,,,,,
3034714,1501039137258,,,,,,,,,0,1665,0,,,,,,,,,,,,,,,
3034724,1501039137268,3.18,,-0.05,-0.0,0.94,-1,-8,4,0,1635,0,,,,,,,,,,,,,,,
3034734,1501039137278,,,,,,,,,0,1605,0,,,,,,,,,,,,,,,
3034744,1501039137288,,,,,,,,,0,1560,0,36.113674,-115.145676,0.0,6.475,2047.3,9,3,1.9,0,0.0,-1,0.0,0.0,0.0,0
3034754,1501039137298,,,,,,,,,0,1530,0,,,,,,,,,,,,,,,
3034764,1501039137308,3.19,,-0.04,-0.02,0.97,-1,-4,4,0,1500,0,,,,,,,,,,,,,,,
3034774,1501039137318,,,,,,,,,0,1425,0,,,,,,,,,,,,,,,
3034784,1501039137328,,,,,,,,,0,1590,0,,,,,,,,,,,,,,,
3034794,1501039137338,,,,,,,,,0,1665,0,,,,,,,,,,,,,,,
3034804,1501039137348,3.17,,-0.05,-0.03,0.96,-2,-3,4,0,1635,0,,,,,,,,,,,,,,,
3034814,1501039137358,,,,,,,,,0,1605,0,,,,,,,,,,,,,,,
3034824,1501039137368,,,,,,,,,0,1560,0,,,,,,,,,,,,,,,
3034834,1501039137378,,,,,,,,,0,1530,0,,,,,,,,,,,,,,,
3034844,1501039137388,3.19,,-0.03,-0.03,1.14,-2,-2,5,0,1500,0,36.113674,-115.145676,0.0,6.475,2047.3,9,3,1.9,0,0.0,-1,0.0,0.0,0.0,0
3034854,1501039137396,,,,,,,,,0,1425,0,,,,,,,,,,,,,,,
3034864,1501039137406,,,,,,,,,0,1590,0,,,,,,,,,,,,,,,
3034874,1501039137416,,,,,,,,,0,1635,0,,,,,,,,,,,,,,,
3034884,1501039137426,3.17,,-0.04,-0.04,1.11,-2,-0,4,0,1605,0,,,,,,,,,,,,,,,
3034894,1501039137436,,,,,,,,,0,1560,0,,,,,,,,,,,,,,,
3034904,1501039137446,,,,,,,,,0,1545,0,,,,,,,,,,,,,,,
3034914,1501039137456,,,,,,,,,0,1500,0,,,,,,,,,,,,,,,
3034924,1501039137466,3.17,,-0.03,-0.03,1.1,-1,-3,3,0,1425,0,,,,,,,,,,,,,,,
3034934,1501039137476,,,,,,,,,0,1590,0,,,,,,,,,,,,,,,
3034944,1501039137486,,,,,,,,,0,1665,0,36.113674,-115.145676,0.0,6.475,2047.3,9,3,1.9,0,0.0,-1,0.0,0.0,0.0,0
3034954,1501039137498,,,,,,,,,0,1635,0,,,,,,,,,,,,,,,
3034964,1501039137508,3.18,,-0.02,0.0,1.08,-1,-2,4,0,1605,0,,,,,,,,,,,,,,,
3034974,1501039137518,,,,,,,,,0,1560,0,,,,,,,,,,,,,,,
3034984,1501039137528,,,,,,,,,0,1530,0,,,,,,,,,,,,,,,
3034994,1501039137538,,,,,,,,,0,1500,0,,,,,,,,,,,,,,,
3035004,1501039137548,3.17,,0.01,-0.03,1.03,-1,-6,5,0,1425,0,,,,,,,,,,,,,,,
3035014,1501039137558,,,,,,,,,0,1590,0,,,,,,,,,,,,,,,
3035024,1501039137568,,,,,,,,,0,1650,0,,,,,,,,,,,,,,,
3035034,1501039137578,,,,,,,,,0,1635,0,,,,,,,,,,,,,,,
3035044,1501039137588,3.18,4.5,0.04,-0.02,1.02,-1,-8,4,0,1605,0,36.113674,-115.145676,0.0,6.475,2047.3,9,3,1.9,0,0.0,-1,0.0,0.0,0.0,0
3035054,1501039137598,,,,,,,,,0,1560,0,,,,,,,,,,,,,,,
3035064,1501039137608,,,,,,,,,0,1530,0,,,,,,,,,,,,,,,
3035074,1501039137618,,,,,,,,,0,1500,0,,,,,,,,,,,,,,,
3035084,1501039137628,3.17,,0.05,-0.02,0.93,-1,-10,4,0,1425,0,,,,,,,,,,,,,,,
3035094,1501039137638,,,,,,,,,0,1650,0,,,,,,,,,,,,,,,
3035104,1501039137648,,,,,,,,,0,1635,0,,,,,,,,,,,,,,,
3035114,1501039137658,,,,,,,,,0,1605,0,,,,,,,,,,,,,,,
3035124,1501039137668,3.17,,0.02,-0.0,0.94,-2,-9,5,0,1560,0,,,,,,,,,,,,,,,
3035134,1501039137678,,,,,,,,,0,1530,0,,,,,,,,,,,,,,,
3035144,1501039137688,,,,,,,,,0,1500,0,36.113674,-115.145676,0.0,6.475,2047.3,9,3,1.9,0,0.0,-1,0.0,0.0,0.0,0
3035154,1501039137697,,,,,,,,,0,1425,0,,,,,,,,,,,,,,,
3035164,1501039137707,3.19,,-0.01,0.01,0.91,-1,-9,5,0,1590,0,,,,,,,,,,,,,,,
3035174,1501039137717,,,,,,,,,0,1650,0,,,,,,,,,,,,,,,
3035184,1501039137727,,,,,,,,,0,1635,0,,,,,,,,,,,,,,,
3035194,1501039137737,,,,,,,,,0,1605,0,,,,,,,,,,,,,,,
3035204,1501039137747,3.19,,-0.02,-0.02,0.97,-1,-8,4,0,1560,0,,,,,,,,,,,,,,,
3035214,1501039137757,,,,,,,,,0,1530,0,,,,,,,,,,,,,,,
3035224,1501039137767,,,,,,,,,0,1500,0,,,,,,,,,,,,,,,
3035234,1501039137777,,,,,,,,,0,1425,0,,,,,,,,,,,,,,,
3035244,1501039137787,3.19,,-0.04,0.01,0.98,-2,-4,5,0,1575,0,36.113674,-115.145676,0.0,6.475,2047.3,9,3,1.9,0,0.0,-1,0.0,0.0,0.0,0
3035254,1501039137797,,,,,,,,,0,1650,0,,,,,,,,,,,,,,,
3035264,1501039137807,,,,,,,,,0,1635,0,,,,,,,,,,,,,,,
3035274,1501039137817,,,,,,,,,0,1605,0,,,,,,,,,,,,,,,
3035284,1501039137827,3.19,,-0.03,-0.04,1.05,-2,-2,5,0,1560,0,,,,,,,,,,,,,,,
3035294,1501039137837,,,,,,,,,0,1530,0,,,,,,,,,,,,,,,
3035304,1501039137847,,,,,,,,,0,1500,0,,,,,,,,,,,,,,,
3035314,1501039137857,,,,,,,,,0,1410,0,,,,,,,,,,,,,,,
3035324,1501039137867,3.17,,-0.02,-0.03,1.16,-2,1,6,0,1575,0,,,,,,,,,,,,,,,
3035334,1501039137877,,,,,,,,,0,1620,0,,,,,,,,,,,,,,,
3035344,1501039137887,,,,,,,,,0,1590,0,36.113674,-115.145676,0.0,6.475,2047.3,9,3,1.9,0,0.0,-1,0.0,0.0,0.0,0
3035354,1501039137897,,,,,,,,,0,1560,0,,,,,,,,,,,,,,,
3035364,1501039137907,3.18,,-0.01,-0.04,1.11,-2,-2,5,0,1530,0,,,,,,,,,,,,,,,
3035374,1501039137917,,,,,,,,,0,1500,0,,,,,,,,,,,,,,,
3035384,1501039137927,,,,,,,,,0,1410,0,,,,,,,,,,,,,,,
3035394,1501039137937,,,,,,,,,0,1575,0,,,,,,,,,,,,,,,
3035404,1501039137947,3.17,,-0.01,-0.04,1.22,-2,-1,5,0,1650,0,,,,,,,,,,,,,,,
3035414,1501039137957,,,,,,,,,0,1620,0,,,,,,,,,,,,,,,
3035424,1501039137967,,,,,,,,,0,1590,0,,,,,,,,,,,,,,,
3035434,1501039137977,,,,,,,,,0,1545,0,,,,,,,,,,,,,,,
3035444,1501039137987,3.18,,-0.01,-0.01,1.15,-1,-4,4,0,1530,0,36.113674,-115.145676,0.0,6.475,2047.3,9,3,1.9,0,0.0,-1,0.0,0.0,0.0,0
3035454,1501039137991,,,,,,,,,0,1485,0,,,,,,,,,,,,,,,
3035464,1501039138001,,,,,,,,,0,1410,0,,,,,,,,,,,,,,,
3035474,1501039138011,,,,,,,,,0,1575,0,,,,,,,,,,,,,,,
3035484,1501039138021,3.2,,0.01,-0.02,1.12,-1,-5,4,0,1650,0,,,,,,,,,,,,,,,
3035494,1501039138031,,,,,,,,,0,1620,0,,,,,,,,,,,,,,,
3035504,1501039138041,,,,,,,,,0,1590,0,,,,,,,,,,,,,,,
3035514,1501039138051,,,,,,,,,0,1560,0,,,,,,,,,,,,,,,
3035524,1501039138061,3.18,,0.0,0.01,1.02,-1,-7,4,0,1515,0,,,,,,,,,,,,,,,
3035534,1501039138071,,,,,,,,,0,1485,0,,,,,,,,,,,,,,,
3035544,1501039138081,,,,,,,,,0,1410,0,36.113674,-115.145676,0.0,6.475,2047.3,9,3,2.2,0,0.0,-1,0.0,0.0,0.0,0
3035554,1501039138097,,,,,,,,,0,1575,0,,,,,,,,,,,,,,,
3035564,1501039138107,3.2,,0.04,-0.02,0.99,-1,-10,4,0,1650,0,,,,,,,,,,,,,,,
3035574,1501039138117,,,,,,,,,0,1620,0,,,,,,,,,,,,,,,
3035584,1501039138127,,,,,,,,,0,1590,0,,,,,,,,,,,,,,,
3035594,1501039138137,,,,,,,,,0,1545,0,,,,,,,,,,,,,,,
3035604,1501039138147,3.19,,0.01,-0.01,0.91,-1,-8,4,0,1530,0,,,,,,,,,,,,,,,
3035614,1501039138157,,,,,,,,,0,1485,0,,,,,,,,,,,,,,,
3035624,1501039138167,,,,,,,,,0,1575,0,,,,,,,,,,,,,,,
3035634,1501039138177,,,,,,,,,0,1650,0,,,,,,,,,,,,,,,
3035644,1501039138187,3.17,,-0.0,-0.0,0.87,-1,-10,4,0,1620,0,36.113674,-115.145676,0.0,6.475,2047.3,9,3,2.2,0,0.0,-1,0.0,0.0,0.0,0
3035654,1501039138197,,,,,,,,,0,1590,0,,,,,,,,,,,,,,,
3035664,1501039138207,,,,,,,,,0,1545,0,,,,,,,,,,,,,,,
3035674,1501039138217,,,,,,,,,0,1530,0,,,,,,,,,,,,,,,
3035684,1501039138227,3.2,,-0.03,-0.02,0.87,-1,-6,4,0,1485,0,,,,,,,,,,,,,,,
3035694,1501039138237,,,,,,,,,0,1410,0,,,,,,,,,,,,,,,
3035704,1501039138247,,,,,,,,,0,1575,0,,,,,,,,,,,,,,,
3035714,1501039138257,,,,,,,,,0,1650,0,,,,,,,,,,,,,,,
3035724,1501039138267,3.17,,-0.06,-0.01,0.8,-1,-6,4,0,1635,0,,,,,,,,,,,,,,,
3035734,1501039138277,,,,,,,,,0,1590,0,,,,,,,,,,,,,,,
3035744,1501039138287,,,,,,,,,0,1560,0,36.113674,-115.145676,0.0,6.475,2047.3,9,3,2.2,0,0.0,-1,0.0,0.0,0.0,0
3035754,1501039138297,,,,,,,,,0,1530,0,,,,,,,,,,,,,,,
3035764,1501039138307,3.19,,-0.04,-0.03,0.86,-1,-2,4,0,1485,0,,,,,,,,,,,,,,,
3035774,1501039138317,,,,,,,,,0,1410,0,,,,,,,,,,,,,,,
3035784,1501039138327,,,,,,,,,0,1575,0,,,,,,,,,,,,,,,
3035794,1501039138337,,,,,,,,,0,1650,0,,,,,,,,,,,,,,,
3035804,1501039138347,3.18,,-0.06,-0.03,0.86,-2,-0,4,0,1620,0,,,,,,,,,,,,,,,
3035814,1501039138357,,,,,,,,,0,1590,0,,,,,,,,,,,,,,,
3035824,1501039138367,,,,,,,,,0,1545,0,,,,,,,,,,,,,,,
3035834,1501039138377,,,,,,,,,0,1530,0,,,,,,,,,,,,,,,
3035844,1501039138387,3.2,,-0.02,-0.03,1.05,-3,-1,6,0,1485,0,36.113674,-115.145676,0.0,6.475,2047.3,9,3,2.2,0,0.0,-1,0.0,0.0,0.0,0
3035854,1501039138397,,,,,,,,,0,1410,0,,,,,,,,,,,,,,,
3035864,1501039138407,,,,,,,,,0,1575,0,,,,,,,,,,,,,,,
3035874,1501039138417,,,,,,,,,0,1620,0,,,,,,,,,,,,,,,
3035884,1501039138427,3.14,,-0.03,-0.03,1.03,-3,0,5,0,1590,0,,,,,,,,,,,,,,,
3035894,1501039138437,,,,,,,,,0,1545,0,,,,,,,,,,,,,,,
3035904,1501039138447,,,,,,,,,0,1515,0,,,,,,,,,,,,,,,
3035914,1501039138457,,,,,,,,,0,1485,0,,,,,,,,,,,,,,,
3035924,1501039138467,3.14,,-0.01,-0.03,1.13,-1,-2,3,0,1410,0,,,,,,,,,,,,,,,
3035934,1501039138477,,,,,,,,,0,1575,0,,,,,,,,,,,,,,,
3035944,1501039138487,,,,,,,,,0,1650,0,36.113674,-115.145676,0.0,6.475,2047.3,9,3,2.2,0,0.0,-1,0.0,0.0,0.0,0
3035954,1501039138499,,,,,,,,,0,1620,0,,,,,,,,,,,,,,,
3035964,1501039138509,3.19,,-0.01,-0.02,1.16,-1,-2,4,0,1590,0,,,,,,,,,,,,,,,
3035974,1501039138519,,,,,,,,,0,1545,0,,,,,,,,,,,,,,,
3035984,1501039138529,,,,,,,,,0,1515,0,,,,,,,,,,,,,,,
3035994,1501039138539,,,,,,,,,0,1485,0,,,,,,,,,,,,,,,
3036004,1501039138549,3.17,,-0.02,-0.01,1.11,-1,-5,5,0,1395,0,,,,,,,,,,,,,,,
3036014,1501039138559,,,,,,,,,0,1560,0,,,,,,,,,,,,,,,
3036024,1501039138569,,,,,,,,,0,1650,0,,,,,,,,,,,,,,,
3036034,1501039138579,,,,,,,,,0,1620,0,,,,,,,,,,,,,,,
3036044,1501039138589,3.19,4.47,-0.0,0.01,1.04,-1,-6,5,0,1590,0,36.113674,-115.145676,0.0,6.475,2047.3,9,3,2.2,0,0.0,-1,0.0,0.0,0.0,0
3036054,1501039138597,,,,,,,,,0,1545,0,,,,,,,,,,,,,,,
3036064,1501039138607,,,,,,,,,0,1515,0,,,,,,,,,,,,,,,
3036074,1501039138617,,,,,,,,,0,1485,0,,,,,,,,,,,,,,,
3036084,1501039138627,3.16,,0.03,-0.02,0.97,-1,-9,5,0,1410,0,,,,,,,,,,,,,,,
3036094,1501039138637,,,,,,,,,0,1560,0,,,,,,,,,,,,,,,
3036104,1501039138647,,,,,,,,,0,1650,0,,,,,,,,,,,,,,,
3036114,1501039138657,,,,,,,,,0,1620,0,,,,,,,,,,,,,,,
3036124,1501039138667,3.19,,0.03,-0.01,0.95,-1,-10,4,0,1590,0,,,,,,,,,,,,,,,
3036134,1501039138677,,,,,,,,,0,1560,0,,,,,,,,,,,,,,,
3036144,1501039138687,,,,,,,,,0,1530,0,36.113674,-115.145676,0.0,6.475,2047.3,9,3,2.2,0,0.0,-1,0.0,0.0,0.0,0
3036154,1501039138697,,,,,,,,,0,1485,0,,,,,,,,,,,,,,,
3036164,1501039138707,3.19,,0.01,0.01,0.85,-1,-11,3,0,1410,0,,,,,,,,,,,,,,,
3036174,1501039138717,,,,,,,,,0,1650,0,,,,,,,,,,,,,,,
3036184,1501039138727,,,,,,,,,0,1635,0,,,,,,,,,,,,,,,
3036194,1501039138737,,,,,,,,,0,1590,0,,,,,,,,,,,,,,,
3036204,1501039138747,3.2,,-0.01,-0.0,0.9,-2,-10,5,0,1560,0,,,,,,,,,,,,,,,
3036214,1501039138757,,,,,,,,,0,1530,0,,,,,,,,,,,,,,,
3036224,1501039138767,,,,,,,,,0,1485,0,,,,,,,,,,,,,,,
3036234,1501039138777,,,,,,,,,0,1410,0,,,,,,,,,,,,,,,
3036244,1501039138787,3.19,,-0.04,0.01,0.8,-1,-9,5,0,1575,0,36.113674,-115.145676,0.0,6.475,2047.3,9,3,2.2,0,0.0,-1,0.0,0.0,0.0,0
3036254,1501039138798,,,,,,,,,0,1650,0,,,,,,,,,,,,,,,
3036264,1501039138808,,,,,,,,,0,1635,0,,,,,,,,,,,,,,,
3036274,1501039138818,,,,,,,,,0,1590,0,,,,,,,,,,,,,,,
3036284,1501039138828,3.2,,-0.05,-0.01,0.87,-1,-7,4,0,1560,0,,,,,,,,,,,,,,,
3036294,1501039138838,,,,,,,,,0,1530,0,,,,,,,,,,,,,,,
3036304,1501039138848,,,,,,,,,0,1500,0,,,,,,,,,,,,,,,
3036314,1501039138858,,,,,,,,,0,1425,0,,,,,,,,,,,,,,,
3036324,1501039138868,3.2,,-0.04,0.0,0.87,-2,-3,5,0,1575,0,,,,,,,,,,,,,,,
3036334,1501039138878,,,,,,,,,0,1665,0,,,,,,,,,,,,,,,
3036344,1501039138888,,,,,,,,,0,1635,0,36.113674,-115.145676,0.0,6.475,2047.3,9,3,2.2,0,0.0,-1,0.0,0.0,0.0,0
3036354,1501039138898,,,,,,,,,0,1605,0,,,,,,,,,,,,,,,
3036364,1501039138908,3.2,,-0.02,-0.05,0.96,-2,-3,5,0,1560,0,,,,,,,,,,,,,,,
3036374,1501039138918,,,,,,,,,0,1530,0,,,,,,,,,,,,,,,
3036384,1501039138928,,,,,,,,,0,1500,0,,,,,,,,,,,,,,,
3036394,1501039138938,,,,,,,,,0,1425,0,,,,,,,,,,,,,,,
3036404,1501039138948,3.15,,-0.02,-0.05,1.08,-2,0,5,0,1665,0,,,,,,,,,,,,,,,
3036414,1501039138958,,,,,,,,,0,1635,0,,,,,,,,,,,,,,,
3036424,1501039138968,,,,,,,,,0,1605,0,,,,,,,,,,,,,,,
3036434,1501039138978,,,,,,,,,0,1560,0,,,,,,,,,,,,,,,
3036444,1501039138988,3.18,,-0.01,-0.03,1.06,-2,-3,4,0,1530,0,36.113674,-115.145676,0.0,6.475,2047.3,9,3,2.2,0,0.0,-1,0.0,0.0,0.0,0
3036454,1501039138998,,,,,,,,,0,1500,0,,,,,,,,,,,,,,,
3036464,1501039139000,,,,,,,,,0,1425,0,,,,,,,,,,,,,,,
3036474,1501039139010,,,,,,,,,0,1575,0,,,,,,,,,,,,,,,
3036484,1501039139020,3.19,,-0.01,-0.04,1.12,-1,-3,4,0,1665,0,,,,,,,,,,,,,,,
3036494,1501039139030,,,,,,,,,0,1620,0,,,,,,,,,,,,,,,
3036504,1501039139040,,,,,,,,,0,1605,0,,,,,,,,,,,,,,,
3036514,1501039139050,,,,,,,,,0,1560,0,,,,,,,,,,,,,,,
3036524,1501039139060,3.19,,-0.01,-0.02,1.06,-1,-5,4,0,1530,0,,,,,,,,,,,,,,,
3036534,1501039139070,,,,,,,,,0,1500,0,,,,,,,,,,,,,,,
3036544,1501039139080,,,,,,,,,0,1410,0,36.113674,-115.145676,0.0,6.475,2047.3,9,3,1.9,0,0.0,-1,0.0,0.0,0.0,0
3036554,1501039139096,,,,,,,,,0,1575,0,,,,,,,,,,,,,,,
3036564,1501039139106,3.21,,0.03,-0.04,1.04,-0,-8,4,0,1650,0,,,,,,,,,,,,,,,
3036574,1501039139116,,,,,,,,,0,1620,0,,,,,,,,,,,,,,,
3036584,1501039139126,,,,,,,,,0,1590,0,,,,,,,,,,,,,,,
3036594,1501039139136,,,,,,,,,0,1560,0,,,,,,,,,,,,,,,
3036604,1501039139146,3.19,,0.02,-0.01,0.96,-0,-8,4,0,1530,0,,,,,,,,,,,,,,,
3036614,1501039139156,,,,,,,,,0,1500,0,,,,,,,,,,,,,,,
3036624,1501039139166,,,,,,,,,0,1410,0,,,,,,,,,,,,,,,
3036634,1501039139176,,,,,,,,,0,1575,0,,,,,,,,,,,,,,,
3036644,1501039139186,3.15,,0.03,-0.01,0.93,-1,-11,5,0,1620,0,36.113674,-115.145676,0.0,6.475,2047.3,9,3,1.9,0,0.0,-1,0.0,0.0,0.0,0
3036654,1501039139198,,,,,,,,,0,1590,0,,,,,,,,,,,,,,,
3036664,1501039139208,,,,,,,,,0,1560,0,,,,,,,,,,,,,,,
3036674,1501039139218,,,,,,,,,0,1515,0,,,,,,,,,,,,,,,
3036684,1501039139228,3.15,,-0.01,-0.01,0.94,-2,-8,5,0,1485,0,,,,,,,,,,,,,,,
3036694,1501039139238,,,,,,,,,0,1410,0,,,,,,,,,,,,,,,
3036704,1501039139248,,,,,,,,,0,1575,0,,,,,,,,,,,,,,,
3036714,1501039139258,,,,,,,,,0,1650,0,,,,,,,,,,,,,,,
3036724,1501039139268,3.18,,-0.04,-0.01,0.94,-1,-10,4,0,1620,0,,,,,,,,,,,,,,,
3036734,1501039139278,,,,,,,,,0,1590,0,,,,,,,,,,,,,,,
3036744,1501039139288,,,,,,,,,0,1560,0,36.113674,-115.145676,0.0,6.475,2047.3,9,3,1.9,0,0.0,-1,0.0,0.0,0.0,0
3036754,1501039139298,,,,,,,,,0,1530,0,,,,,,,,,,,,,,,
3036764,1501039139308,3.2,,-0.05,-0.03,0.97,-1,-5,4,0,1485,0,,,,,,,,,,,,,,,
3036774,1501039139318,,,,,,,,,0,1410,0,,,,,,,,,,,,,,,
3036784,1501039139328,,,,,,,,,0,1575,0,,,,,,,,,,,,,,,
3036794,1501039139338,,,,,,,,,0,1650,0,,,,,,,,,,,,,,,
3036804,1501039139348,3.17,,-0.08,-0.02,0.98,-1,-4,4,0,1635,0,,,,,,,,,,,,,,,
3036814,1501039139358,,,,,,,,,0,1590,0,,,,,,,,,,,,,,,
3036824,1501039139368,,,,,,,,,0,1560,0,,,,,,,,,,,,,,,
3036834,1501039139378,,,,,,,,,0,1530,0,,,,,,,,,,,,,,,
3036844,1501039139388,3.18,,-0.04,-0.02,1.06,-2,-0,4,0,1485,0,36.113674,-115.145676,0.0,6.475,2047.3,9,3,1.9,0,0.0,-1,0.0,0.0,0.0,0
3036854,1501039139398,,,,,,,,,0,1410,0,,,,,,,,,,,,,,,
3036864,1501039139408,,,,,,,,,0,1575,0,,,,,,,,,,,,,,,
3036874,1501039139418,,,,,,,,,0,1650,0,,,,,,,,,,,,,,,
3036884,1501039139428,3.18,,-0.05,-0.03,1.06,-2,1,5,0,1620,0,,,,,,,,,,,,,,,
3036894,1501039139438,,,,,,,,,0,1590,0,,,,,,,,,,,,,,,
3036904,1501039139448,,,,,,,,,0,1560,0,,,,,,,,,,,,,,,
3036914,1501039139458,,,,,,,,,0,1530,0,,,,,,,,,,,,,,,
3036924,1501039139468,3.18,,-0.02,-0.04,1.17,-2,-1,4,0,1485,0,,,,,,,,,,,,,,,
3036934,1501039139478,,,,,,,,,0,1575,0,,,,,,,,,,,,,,,
3036944,1501039139488,,,,,,,,,0,1650,0,36.113674,-115.145676,0.0,6.475,2047.3,9,3,1.9,0,0.0,-1,0.0,0.0,0.0,0
3036954,1501039139498,,,,,,,,,0,1635,0,,,,,,,,,,,,,,,
3036964,1501039139508,3.19,,-0.03,-0.03,1.17,-2,-0,3,0,1590,0,,,,,,,,,,,,,,,
3036974,1501039139518,,,,,,,,,0,1560,0,,,,,,,,,,,,,,,
3036984,1501039139528,,,,,,,,,0,1530,0,,,,,,,,,,,,,,,
3036994,1501039139538,,,,,,,,,0,1500,0,,,,,,,,,,,,,,,
3037004,1501039139548,3.17,,-0.04,-0.03,1.11,-1,-3,3,0,1410,0,,,,,,,,,,,,,,,
3037014,1501039139558,,,,,,,,,0,1575,0,,,,,,,,,,,,,,,
3037024,1501039139568,,,,,,,,,0,1650,0,,,,,,,,,,,,,,,
3037034,1501039139578,,,,,,,,,0,1635,0,,,,,,,,,,,,,,,
3037044,1501039139588,3.19,4.51,-0.01,-0.01,1.07,-1,-4,4,0,1590,0,36.113674,-115.145676,0.0,6.475,2047.3,9,3,1.9,0,0.0,-1,0.0,0.0,0.0,0
3037054,1501039139598,,,,,,,,,0,1560,0,,,,,,,,,,,,,,,
3037064,1501039139608,,,,,,,,,0,1530,0,,,,,,,,,,,,,,,
3037074,1501039139618,,,,,,,,,0,1485,0,,,,,,,,,,,,,,,
3037084,1501039139628,3.16,,0.02,-0.04,1.01,-1,-8,5,0,1410,0,,,,,,,,,,,,,,,
3037094,1501039139638,,,,,,,,,0,1575,0,,,,,,,,,,,,,,,
3037104,1501039139648,,,,,,,,,0,1650,0,,,,,,,,,,,,,,,
3037114,1501039139658,,,,,,,,,0,1620,0,,,,,,,,,,,,,,,
3037124,1501039139668,3.18,,0.04,-0.03,0.99,-1,-9,4,0,1590,0,,,,,,,,,,,,,,,
3037134,1501039139678,,,,,,,,,0,1560,0,,,,,,,,,,,,,,,
3037144,1501039139688,,,,,,,,,0,1530,0,36.113674,-115.145676,0.0,6.475,2047.3,9,3,1.9,0,0.0,-1,0.0,0.0,0.0,0
3037154,1501039139691,,,,,,,,,0,1485,0,,,,,,,,,,,,,,,
3037164,1501039139701,3.18,,0.04,-0.02,0.87,-1,-12,3,0,1410,0,,,,,,,,,,,,,,,
3037174,1501039139711,,,,,,,,,0,1650,0,,,,,,,,,,,,,,,
3037184,1501039139721,,,,,,,,,0,1620,0,,,,,,,,,,,,,,,
3037194,1501039139731,,,,,,,,,0,1590,0,,,,,,,,,,,,,,,
3037204,1501039139741,3.19,,0.03,-0.02,0.9,-2,-11,4,0,1545,0,,,,,,,,,,,,,,,
3037214,1501039139751,,,,,,,,,0,1515,0,,,,,,,,,,,,,,,
3037224,1501039139761,,,,,,,,,0,1485,0,,,,,,,,,,,,,,,
3037234,1501039139771,,,,,,,,,0,1410,0,,,,,,,,,,,,,,,
3037244,1501039139781,3.19,,-0.02,-0.01,0.85,-1,-10,4,0,1575,0,36.113674,-115.145676,0.0,6.475,2047.3,9,3,1.9,0,0.0,-1,0.0,0.0,0.0,0
3037254,1501039139797,,,,,,,,,0,1650,0,,,,,,,,,,,,,,,
3037264,1501039139807,,,,,,,,,0,1620,0,,,,,,,,,,,,,,,
3037274,1501039139817,,,,,,,,,0,1590,0,,,,,,,,,,,,,,,
3037284,1501039139827,3.19,,-0.04,-0.03,0.91,-1,-8,4,0,1545,0,,,,,,,,,,,,,,,
3037294,1501039139837,,,,,,,,,0,1515,0,,,,,,,,,,,,,,,
3037304,1501039139847,,,,,,,,,0,1485,0,,,,,,,,,,,,,,,
3037314,1501039139857,,,,,,,,,0,1410,0,,,,,,,,,,,,,,,
3037324,1501039139867,3.19,,-0.06,-0.01,0.93,-2,-4,5,0,1575,0,,,,,,,,,,,,,,,
3037334,1501039139877,,,,,,,,,0,1650,0,,,,,,,,,,,,,,,
3037344,1501039139887,,,,,,,,,0,1620,0,36.113674,-115.145676,0.0,6.475,2047.3,9,3,1.9,0,0.0,-1,0.0,0.0,0.0,0
3037354,1501039139897,,,,,,,,,0,1590,0,,,,,,,,,,,,,,,
3037364,1501039139907,3.19,,-0.06,-0.03,0.98,-2,-2,4,0,1545,0,,,,,,,,,,,,,,,
3037374,1501039139917,,,,,,,,,0,1515,0,,,,,,,,,,,,,,,
3037384,1501039139927,,,,,,,,,0,1485,0,,,,,,,,,,,,,,,
3037394,1501039139937,,,,,,,,,0,1395,0,,,,,,,,,,,,,,,
3037404,1501039139947,3.19,,-0.03,-0.02,1.02,-3,2,6,0,1575,0,,,,,,,,,,,,,,,
3037414,1501039139957,,,,,,,,,0,1650,0,,,,,,,,,,,,,,,
3037424,1501039139967,,,,,,,,,0,1620,0,,,,,,,,,,,,,,,
3037434,1501039139977,,,,,,,,,0,1590,0,,,,,,,,,,,,,,,
3037444,1501039139987,3.19,,-0.02,-0.05,1.04,-2,1,5,0,1545,0,36.113674,-115.145676,0.0,6.475,2047.3,9,3,1.9,0,0.0,-1,0.0,0.0,0.0,0
3037454,1501039139991,,,,,,,,,0,1515,0,,,,,,,,,,,,,,,
3037464,1501039140001,,,,,,,,,0,1485,0,,,,,,,,,,,,,,,
3037474,1501039140011,,,,,,,,,0,1575,0,,,,,,,,,,,,,,,
3037484,1501039140021,3.17,,-0.01,-0.05,1.16,-2,2,4,0,1650,0,,,,,,,,,,,,,,,
3037494,1501039140031,,,,,,,,,0,1620,0,,,,,,,,,,,,,,,
3037504,1501039140041,,,,,,,,,0,1590,0,,,,,,,,,,,,,,,
3037514,1501039140051,,,,,,,,,0,1545,0,,,,,,,,,,,,,,,
3037524,1501039140061,3.18,,-0.01,-0.02,1.12,-1,-1,2,0,1515,0,,,,,,,,,,,,,,,
3037534,1501039140071,,,,,,,,,0,1485,0,,,,,,,,,,,,,,,
3037544,1501039140081,,,,,,,,,0,1410,0,36.113674,-115.145676,0.0,6.475,2047.3,9,3,1.9,0,0.0,-1,0.0,0.0,0.0,0
3037554,1501039140097,,,,,,,,,0,1560,0,,,,,,,,,,,,,,,
3037564,1501039140107,3.19,,-0.0,-0.02,1.2,-1,-3,2,0,1650,0,,,,,,,,,,,,,,,
3037574,1501039140117,,,,,,,,,0,1620,0,,,,,,,,,,,,,,,
3037584,1501039140127,,,,,,,,,0,1590,0,,,,,,,,,,,,,,,
3037594,1501039140137,,,,,,,,,0,1545,0,,,,,,,,,,,,,,,
3037604,1501039140147,3.15,,-0.01,0.01,1.12,-1,-5,3,0,1515,0,,,,,,,,,,,,,,,
3037614,1501039140157,,,,,,,,,0,1485,0,,,,,,,,,,,,,,,
3037624,1501039140167,,,,,,,,,0,1395,0,,,,,,,,,,,,,,,
3037634,1501039140177,,,,,,,,,0,1575,0,,,,,,,,,,,,,,,
3037644,1501039140187,3.21,,0.03,-0.02,1.09,-0,-8,4,0,1650,0,36.113674,-115.145676,0.0,6.475,2047.3,9,3,1.9,0,0.0,-1,0.0,0.0,0.0,0
3037654,1501039140197,,,,,,,,,0,1620,0,,,,,,,,,,,,,,,
3037664,1501039140207,,,,,,,,,0,1590,0,,,,,,,,,,,,,,,
3037674,1501039140217,,,,,,,,,0,1545,0,,,,,,,,,,,,,,,
3037684,1501039140227,3.18,,0.04,-0.01,1.01,-1,-10,4,0,1515,0,,,,,,,,,,,,,,,
3037694,1501039140237,,,,,,,,,0,1485,0,,,,,,,,,,,,,,,
3037704,1501039140247,,,,,,,,,0,1410,0,,,,,,,,,,,,,,,
3037714,1501039140257,,,,,,,,,0,1560,0,,,,,,,,,,,,,,,
3037724,1501039140267,3.18,,0.04,-0.04,0.99,-1,-12,4,0,1650,0,,,,,,,,,,,,,,,
3037734,1501039140277,,,,,,,,,0,1620,0,,,,,,,,,,,,,,,
3037744,1501039140287,,,,,,,,,0,1590,0,36.113674,-115.145676,0.0,6.475,2047.3,9,3,1.9,0,0.0,-1,0.0,0.0,0.0,0
3037754,1501039140297,,,,,,,,,0,1545,0,,,,,,,,,,,,,,,
3037764,1501039140307,3.18,,0.02,-0.02,0.94,-1,-11,5,0,1515,0,,,,,,,,,,,,,,,
3037774,1501039140317,,,,,,,,,0,1485,0,,,,,,,,,,,,,,,
3037784,1501039140327,,,,,,,,,0,1575,0,,,,,,,,,,,,,,,
3037794,1501039140337,,,,,,,,,0,1650,0,,,,,,,,,,,,,,,
3037804,1501039140347,3.17,,0.0,-0.02,0.92,-1,-13,3,0,1620,0,,,,,,,,,,,,,,,
3037814,1501039140357,,,,,,,,,0,1590,0,,,,,,,,,,,,,,,
3037824,1501039140367,,,,,,,,,0,1545,0,,,,,,,,,,,,,,,
3037834,1501039140377,,,,,,,,,0,1515,0,,,,,,,,,,,,,,,
3037844,1501039140387,3.19,,-0.02,-0.04,0.94,-1,-8,3,0,1485,0,36.113674,-115.145676,0.0,6.475,2047.3,9,3,1.9,0,0.0,-1,0.0,0.0,0.0,0
3037854,1501039140397,,,,,,,,,0,1410,0,,,,,,,,,,,,,,,
3037864,1501039140407,,,,,,,,,0,1575,0,,,,,,,,,,,,,,,
3037874,1501039140417,,,,,,,,,0,1650,0,,,,,,,,,,,,,,,
3037884,1501039140427,3.16,,-0.06,-0.03,0.89,-1,-7,4,0,1620,0,,,,,,,,,,,,,,,
3037894,1501039140437,,,,,,,,,0,1590,0,,,,,,,,,,,,,,,
3037904,1501039140447,,,,,,,,,0,1560,0,,,,,,,,,,,,,,,
3037914,1501039140457,,,,,,,,,0,1515,0,,,,,,,,,,,,,,,
3037924,1501039140467,3.17,,-0.03,-0.04,0.96,-2,-3,4,0,1485,0,,,,,,,,,,,,,,,
3037934,1501039140477,,,,,,,,,0,1410,0,,,,,,,,,,,,,,,
3037944,1501039140487,,,,,,,,,0,1575,0,36.113674,-115.145676,0.0,6.475,2047.3,9,3,1.9,0,0.0,-1,0.0,0.0,0.0,0
3037954,1501039140497,,,,,,,,,0,1650,0,,,,,,,,,,,,,,,
3037964,1501039140507,3.16,,-0.04,-0.05,0.97,-2,-1,5,0,1620,0,,,,,,,,,,,,,,,
3037974,1501039140517,,,,,,,,,0,1590,0,,,,,,,,,,,,,,,
3037984,1501039140527,,,,,,,,,0,1560,0,,,,,,,,,,,,,,,
3037994,1501039140537,,,,,,,,,0,1515,0,,,,,,,,,,,,,,,
3038004,1501039140547,3.18,,-0.01,-0.05,1.09,-3,-1,6,0,1500,0,,,,,,,,,,,,,,,
3038014,1501039140557,,,,,,,,,0,1410,0,,,,,,,,,,,,,,,
3038024,1501039140567,,,,,,,,,0,1575,0,,,,,,,,,,,,,,,
3038034,1501039140577,,,,,,,,,0,1620,0,,,,,,,,,,,,,,,
3038044,1501039140587,3.16,4.5,-0.02,-0.05,1.1,-2,1,4,0,1605,0,36.113674,-115.145676,0.0,6.475,2047.3,9,3,1.9,0,0.0,-1,0.0,0.0,0.0,0
3038054,1501039140599,,,,,,,,,0,1545,0,,,,,,,,,,,,,,,
3038064,1501039140609,,,,,,,,,0,1530,0,,,,,,,,,,,,,,,
3038074,1501039140619,,,,,,,,,0,1485,0,,,,,,,,,,,,,,,
3038084,1501039140629,3.16,,-0.04,-0.03,1.13,-1,-1,3,0,1410,0,,,,,,,,,,,,,,,
3038094,1501039140639,,,,,,,,,0,1575,0,,,,,,,,,,,,,,,
3038104,1501039140649,,,,,,,,,0,1650,0,,,,,,,,,,,,,,,
3038114,1501039140659,,,,,,,,,0,1620,0,,,,,,,,,,,,,,,
3038124,1501039140669,3.18,,-0.01,-0.01,1.12,-1,-2,3,0,1590,0,,,,,,,,,,,,,,,
3038134,1501039140679,,,,,,,,,0,1560,0,,,,,,,,,,,,,,,
3038144,1501039140689,,,,,,,,,0,1515,0,36.113674,-115.145676,0.0,6.475,2047.3,9,3,1.9,0,0.0,-1,0.0,0.0,0.0,0
3038154,1501039140698,,,,,,,,,0,1485,0,,,,,,,,,,,,,,,
3038164,1501039140708,3.16,,0.0,-0.03,1.04,-0,-5,5,0,1410,0,,,,,,,,,,,,,,,
3038174,1501039140718,,,,,,,,,0,1575,0,,,,,,,,,,,,,,,
3038184,1501039140728,,,,,,,,,0,1650,0,,,,,,,,,,,,,,,
3038194,1501039140738,,,,,,,,,0,1620,0,,,,,,,,,,,,,,,
3038204,1501039140748,3.2,,0.05,-0.03,1.02,-0,-8,5,0,1590,0,,,,,,,,,,,,,,,
3038214,1501039140758,,,,,,,,,0,1545,0,,,,,,,,,,,,,,,
3038224,1501039140768,,,,,,,,,0,1515,0,,,,,,,,,,,,,,,
3038234,1501039140778,,,,,,,,,0,1485,0,,,,,,,,,,,,,,,
3038244,1501039140788,3.16,,0.06,-0.03,0.94,-1,-11,4,0,1410,0,36.113674,-115.145676,0.0,6.475,2047.3,9,3,1.9,0,0.0,-1,0.0,0.0,0.0,0
3038254,1501039140798,,,,,,,,,0,1575,0,,,,,,,,,,,,,,,
3038264,1501039140808,,,,,,,,,0,1650,0,,,,,,,,,,,,,,,
3038274,1501039140818,,,,,,,,,0,1620,0,,,,,,,,,,,,,,,
3038284,1501039140828,3.19,,0.05,-0.03,0.96,-1,-12,4,0,1590,0,,,,,,,,,,,,,,,
3038294,1501039140838,,,,,,,,,0,1545,0,,,,,,,,,,,,,,,
3038304,1501039140848,,,,,,,,,0,1515,0,,,,,,,,,,,,,,,
3038314,1501039140858,,,,,,,,,0,1485,0,,,,,,,,,,,,,,,
3038324,1501039140868,3.14,,0.02,-0.01,0.89,-1,-13,3,0,1575,0,,,,,,,,,,,,,,,
3038334,1501039140878,,,,,,,,,0,1650,0,,,,,,,,,,,,,,,
3038344,1501039140888,,,,,,,,,0,1620,0,36.113674,-115.145676,0.0,6.475,2047.3,9,3,1.9,0,0.0,-1,0.0,0.0,0.0,0
3038354,1501039140898,,,,,,,,,0,1590,0,,,,,,,,,,,,,,,
3038364,1501039140908,3.19,,0.0,-0.03,0.93,-1,-11,4,0,1560,0,,,,,,,,,,,,,,,
3038374,1501039140918,,,,,,,,,0,1530,0,,,,,,,,,,,,,,,
3038384,1501039140928,,,,,,,,,0,1485,0,,,,,,,,,,,,,,,
3038394,1501039140938,,,,,,,,,0,1410,0,,,,,,,,,,,,,,,
3038404,1501039140948,3.18,,-0.04,-0.01,0.9,-1,-7,5,0,1575,0,,,,,,,,,,,,,,,
3038414,1501039140958,,,,,,,,,0,1650,0,,,,,,,,,,,,,,,
3038424,1501039140968,,,,,,,,,0,1620,0,,,,,,,,,,,,,,,
3038434,1501039140978,,,,,,,,,0,1590,0,,,,,,,,,,,,,,,
3038444,1501039140988,3.19,,-0.06,-0.03,0.95,-1,-5,4,0,1545,0,36.113674,-115.145676,0.0,6.475,2047.3,9,3,1.9,0,0.0,-1,0.0,0.0,0.0,0
3038454,1501039140992,,,,,,,,,0,1530,0,,,,,,,,,,,,,,,
3038464,1501039141002,,,,,,,,,0,1485,0,,,,,,,,,,,,,,,
3038474,1501039141012,,,,,,,,,0,1425,0,,,,,,,,,,,,,,,
3038484,1501039141022,3.19,,-0.02,-0.02,0.97,-2,-1,5,0,1575,0,,,,,,,,,,,,,,,
3038494,1501039141032,,,,,,,,,0,1650,0,,,,,,,,,,,,,,,
3038504,1501039141042,,,,,,,,,0,1620,0,,,,,,,,,,,,,,,
3038514,1501039141052,,,,,,,,,0,1590,0,,,,,,,,,,,,,,,
3038524,1501039141062,3.18,,-0.02,-0.06,1.01,-2,-0,5,0,1560,0,,,,,,,,,,,,,,,
3038534,1501039141072,,,,,,,,,0,1515,0,,,,,,,,,,,,,,,
3038544,1501039141082,,,,,,,,,0,1485,0,36.113674,-115.145676,0.0,6.475,2047.3,9,3,1.9,0,0.0,-1,0.0,0.0,0.0,0
3038554,1501039141098,,,,,,,,,0,1410,0,,,,,,,,,,,,,,,
3038564,1501039141108,3.15,,0.01,-0.06,1.14,-2,1,5,0,1575,0,,,,,,,,,,,,,,,
3038574,1501039141118,,,,,,,,,0,1620,0,,,,,,,,,,,,,,,
3038584,1501039141128,,,,,,,,,0,1590,0,,,,,,,,,,,,,,,
3038594,1501039141138,,,,,,,,,0,1545,0,,,,,,,,,,,,,,,
3038604,1501039141148,3.18,,0.0,-0.04,1.1,-2,-1,4,0,1530,0,,,,,,,,,,,,,,,
3038614,1501039141158,,,,,,,,,0,1485,0,,,,,,,,,,,,,,,
3038624,1501039141168,,,,,,,,,0,1410,0,,,,,,,,,,,,,,,
3038634,1501039141178,,,,,,,,,0,1575,0,,,,,,,,,,,,,,,
3038644,1501039141188,3.18,,-0.0,-0.05,1.16,-1,-2,3,0,1650,0,36.113674,-115.145676,0.0,6.475,2047.3,9,3,1.9,0,0.0,-1,0.0,0.0,0.0,0
3038654,1501039141198,,,,,,,,,0,1620,0,,,,,,,,,,,,,,,
3038664,1501039141208,,,,,,,,,0,1605,0,,,,,,,,,,,,,,,
3038674,1501039141218,,,,,,,,,0,1560,0,,,,,,,,,,,,,,,
3038684,1501039141228,3.2,,-0.01,-0.02,1.09,-1,-5,3,0,1530,0,,,,,,,,,,,,,,,
3038694,1501039141238,,,,,,,,,0,1500,0,,,,,,,,,,,,,,,
3038704,1501039141248,,,,,,,,,0,1410,0,,,,,,,,,,,,,,,
3038714,1501039141258,,,,,,,,,0,1575,0,,,,,,,,,,,,,,,
3038724,1501039141268,3.2,,0.02,-0.04,1.05,-0,-7,3,0,1650,0,,,,,,,,,,,,,,,
3038734,1501039141278,,,,,,,,,0,1620,0,,,,,,,,,,,,,,,
3038744,1501039141288,,,,,,,,,0,1590,0,36.113674,-115.145676,0.0,6.475,2047.3,9,3,1.9,0,0.0,-1,0.0,0.0,0.0,0
3038754,1501039141298,,,,,,,,,0,1560,0,,,,,,,,,,,,,,,
3038764,1501039141308,3.18,,0.02,-0.02,0.98,-1,-8,4,0,1530,0,,,,,,,,,,,,,,,
3038774,1501039141318,,,,,,,,,0,1485,0,,,,,,,,,,,,,,,
3038784,1501039141328,,,,,,,,,0,1410,0,,,,,,,,,,,,,,,
3038794,1501039141338,,,,,,,,,0,1575,0,,,,,,,,,,,,,,,
3038804,1501039141348,3.19,,0.04,-0.02,0.97,-1,-12,5,0,1650,0,,,,,,,,,,,,,,,
3038814,1501039141358,,,,,,,,,0,1590,0,,,,,,,,,,,,,,,
3038824,1501039141368,,,,,,,,,0,1560,0,,,,,,,,,,,,,,,
3038834,1501039141378,,,,,,,,,0,1530,0,,,,,,,,,,,,,,,
3038844,1501039141388,3.19,,0.0,-0.02,0.92,-1,-10,5,0,1530,0,36.113674,-115.145676,0.0,6.475,2047.3,9,3,1.9,0,0.0,-1,0.0,0.0,0.0,0
3038854,1501039141398,,,,,,,,,0,1410,0,,,,,,,,,,,,,,,
3038864,1501039141408,,,,,,,,,0,1575,0,,,,,,,,,,,,,,,
3038874,1501039141418,,,,,,,,,0,1650,0,,,,,,,,,,,,,,,
3038884,1501039141428,3.17,,-0.02,-0.02,0.91,-1,-12,3,0,1635,0,,,,,,,,,,,,,,,
3038894,1501039141438,,,,,,,,,0,1605,0,,,,,,,,,,,,,,,
3038904,1501039141448,,,,,,,,,0,1560,0,,,,,,,,,,,,,,,
3038914,1501039141458,,,,,,,,,0,1530,0,,,,,,,,,,,,,,,
3038924,1501039141468,3.19,,-0.04,-0.03,0.93,-1,-7,4,0,1500,0,,,,,,,,,,,,,,,
3038934,1501039141478,,,,,,,,,0,1425,0,,,,,,,,,,,,,,,
3038944,1501039141488,,,,,,,,,0,1575,0,36.113674,-115.145676,0.0,6.475,2047.3,9,3,1.9,0,0.0,-1,0.0,0.0,0.0,0
3038954,1501039141498,,,,,,,,,0,1650,0,,,,,,,,,,,,,,,
3038964,1501039141508,3.17,,-0.08,-0.02,0.95,-1,-4,4,0,1635,0,,,,,,,,,,,,,,,
3038974,1501039141518,,,,,,,,,0,1605,0,,,,,,,,,,,,,,,
3038984,1501039141528,,,,,,,,,0,1560,0,,,,,,,,,,,,,,,
3038994,1501039141538,,,,,,,,,0,1530,0,,,,,,,,,,,,,,,
3039004,1501039141548,3.18,,-0.04,-0.02,1.02,-2,-1,5,0,1500,0,,,,,,,,,,,,,,,
3039014,1501039141558,,,,,,,,,0,1425,0,,,,,,,,,,,,,,,
3039024,1501039141568,,,,,,,,,0,1575,0,,,,,,,,,,,,,,,
3039034,1501039141578,,,,,,,,,0,1665,0,,,,,,,,,,,,,,,
3039044,1501039141588,3.17,4.49,-0.04,-0.02,1.03,-2,1,5,0,1635,0,36.113674,-115.145676,0.0,6.475,2047.3,9,3,1.9,0,0.0,-1,0.0,0.0,0.0,0
3039054,1501039141598,,,,,,,,,0,1560,0,,,,,,,,,,,,,,,
3039064,1501039141608,,,,,,,,,0,1530,0,,,,,,,,,,,,,,,
3039074,1501039141618,,,,,,,,,0,1530,0,,,,,,,,,,,,,,,
3039084,1501039141628,3.17,,-0.02,-0.04,1.15,-2,-1,4,0,1425,0,,,,,,,,,,,,,,,
3039094,1501039141638,,,,,,,,,0,1590,0,,,,,,,,,,,,,,,
3039104,1501039141648,,,,,,,,,0,1665,0,,,,,,,,,,,,,,,
3039114,1501039141658,,,,,,,,,0,1635,0,,,,,,,,,,,,,,,
3039124,1501039141668,3.16,,-0.02,-0.04,1.18,-2,-0,4,0,1605,0,,,,,,,,,,,,,,,
3039134,1501039141678,,,,,,,,,0,1560,0,,,,,,,,,,,,,,,
3039144,1501039141688,,,,,,,,,0,1530,0,36.113674,-115.145676,0.0,6.475,2047.3,9,3,1.9,0,0.0,-1,0.0,0.0,0.0,0
3039154,1501039141697,,,,,,,,,0,1500,0,,,,,,,,,,,,,,,
3039164,1501039141707,3.16,,-0.02,-0.04,1.11,-1,-3,3,0,1425,0,,,,,,,,,,,,,,,
3039174,1501039141717,,,,,,,,,0,1590,0,,,,,,,,,,,,,,,
3039184,1501039141727,,,,,,,,,0,1665,0,,,,,,,,,,,,,,,
3039194,1501039141737,,,,,,,,,0,1635,0,,,,,,,,,,,,,,,
3039204,1501039141747,3.18,,0.02,-0.02,1.03,-1,-5,4,0,1605,0,,,,,,,,,,,,,,,
3039214,1501039141757,,,,,,,,,0,1560,0,,,,,,,,,,,,,,,
3039224,1501039141767,,,,,,,,,0,1530,0,,,,,,,,,,,,,,,
3039234,1501039141777,,,,,,,,,0,1500,0,,,,,,,,,,,,,,,
3039244,1501039141787,3.16,,0.04,-0.04,0.98,-1,-9,4,0,1425,0,36.113674,-115.145676,0.0,6.475,2047.3,9,3,1.9,0,0.0,-1,0.0,0.0,0.0,0
3039254,1501039141797,,,,,,,,,0,1575,0,,,,,,,,,,,,,,,
3039264,1501039141807,,,,,,,,,0,1665,0,,,,,,,,,,,,,,,
3039274,1501039141817,,,,,,,,,0,1635,0,,,,,,,,,,,,,,,
3039284,1501039141827,3.17,,0.03,-0.03,0.97,-1,-10,4,0,1560,0,,,,,,,,,,,,,,,
3039294,1501039141837,,,,,,,,,0,1530,0,,,,,,,,,,,,,,,
3039304,1501039141847,,,,,,,,,0,1530,0,,,,,,,,,,,,,,,
3039314,1501039141857,,,,,,,,,0,1500,0,,,,,,,,,,,,,,,
3039324,1501039141867,3.13,,0.01,-0.01,0.89,-1,-11,2,0,1575,0,,,,,,,,,,,,,,,
3039334,1501039141877,,,,,,,,,0,1650,0,,,,,,,,,,,,,,,
3039344,1501039141887,,,,,,,,,0,1620,0,36.113674,-115.145676,0.0,6.475,2047.3,9,3,1.9,0,0.0,-1,0.0,0.0,0.0,0
3039354,1501039141897,,,,,,,,,0,1590,0,,,,,,,,,,,,,,,
3039364,1501039141907,3.18,,-0.01,-0.02,0.94,-1,-9,4,0,1545,0,,,,,,,,,,,,,,,
3039374,1501039141917,,,,,,,,,0,1530,0,,,,,,,,,,,,,,,
3039384,1501039141927,,,,,,,,,0,1485,0,,,,,,,,,,,,,,,
3039394,1501039141937,,,,,,,,,0,1410,0,,,,,,,,,,,,,,,
3039404,1501039141947,3.19,,-0.05,-0.0,0.87,-2,-6,5,0,1575,0,,,,,,,,,,,,,,,
3039414,1501039141957,,,,,,,,,0,1650,0,,,,,,,,,,,,,,,
3039424,1501039141967,,,,,,,,,0,1620,0,,,,,,,,,,,,,,,
3039434,1501039141977,,,,,,,,,0,1590,0,,,,,,,,,,,,,,,
3039444,1501039141987,3.18,,-0.05,-0.02,0.93,-2,-3,4,0,1545,0,36.113674,-115.145676,0.0,6.475,2047.3,9,3,1.9,0,0.0,-1,0.0,0.0,0.0,0
3039454,1501039141991,,,,,,,,,0,1515,0,,,,,,,,,,,,,,,
3039464,1501039142001,,,,,,,,,0,1485,0,,,,,,,,,,,,,,,
3039474,1501039142011,,,,,,,,,0,1410,0,,,,,,,,,,,,,,,
3039484,1501039142021,3.19,,-0.03,-0.01,0.9,-2,0,4,0,1575,0,,,,,,,,,,,,,,,
3039494,1501039142031,,,,,,,,,0,1650,0,,,,,,,,,,,,,,,
3039504,1501039142041,,,,,,,,,0,1620,0,,,,,,,,,,,,,,,
3039514,1501039142051,,,,,,,,,0,1590,0,,,,,,,,,,,,,,,
3039524,1501039142061,3.18,,-0.02,-0.05,0.98,-2,-0,5,0,1560,0,,,,,,,,,,,,,,,
3039534,1501039142071,,,,,,,,,0,1530,0,,,,,,,,,,,,,,,
3039544,1501039142081,,,,,,,,,0,1485,0,36.113674,-115.145676,0.0,6.475,2047.3,9,3,1.9,0,0.0,-1,0.0,0.0,0.0,0
3039554,1501039142097,,,,,,,,,0,1410,0,,,,,,,,,,,,,,,
3039564,1501039142107,3.13,,-0.0,-0.05,1.11,-2,1,4,0,1650,0,,,,,,,,,,,,,,,
3039574,1501039142117,,,,,,,,,0,1620,0,,,,,,,,,,,,,,,
3039584,1501039142127,,,,,,,,,0,1590,0,,,,,,,,,,,,,,,
3039594,1501039142137,,,,,,,,,0,1560,0,,,,,,,,,,,,,,,
3039604,1501039142147,3.17,,0.0,-0.04,1.08,-1,-2,2,0,1530,0,,,,,,,,,,,,,,,
3039614,1501039142157,,,,,,,,,0,1485,0,,,,,,,,,,,,,,,
3039624,1501039142167,,,,,,,,,0,1410,0,,,,,,,,,,,,,,,
3039634,1501039142177,,,,,,,,,0,1575,0,,,,,,,,,,,,,,,
3039644,1501039142187,3.18,,-0.01,-0.05,1.14,-1,-2,2,0,1650,0,36.113674,-115.145676,0.0,6.475,2047.3,9,3,1.9,0,0.0,-1,0.0,0.0,0.0,0
3039654,1501039142195,,,,,,,,,0,1620,0,,,,,,,,,,,,,,,
3039664,1501039142205,,,,,,,,,0,1590,0,,,,,,,,,,,,,,,
3039674,1501039142215,,,,,,,,,0,1560,0,,,,,,,,,,,,,,,
3039684,1501039142225,3.18,,-0.02,-0.01,1.07,-1,-4,3,0,1530,0,,,,,,,,,,,,,,,
3039694,1501039142235,,,,,,,,,0,1485,0,,,,,,,,,,,,,,,
3039704,1501039142245,,,,,,,,,0,1410,0,,,,,,,,,,,,,,,
3039714,1501039142255,,,,,,,,,0,1575,0,,,,,,,,,,,,,,,
3039724,1501039142265,3.21,,0.01,-0.04,1.01,-0,-7,3,0,1650,0,,,,,,,,,,,,,,,
3039734,1501039142275,,,,,,,,,0,1620,0,,,,,,,,,,,,,,,
3039744,1501039142285,,,,,,,,,0,1605,0,36.113674,-115.145676,0.0,6.475,2047.3,9,3,1.9,0,0.0,-1,0.0,0.0,0.0,0
3039754,1501039142297,,,,,,,,,0,1560,0,,,,,,,,,,,,,,,
3039764,1501039142307,3.18,,0.01,-0.02,0.93,-1,-8,3,0,1530,0,,,,,,,,,,,,,,,
3039774,1501039142317,,,,,,,,,0,1485,0,,,,,,,,,,,,,,,
3039784,1501039142327,,,,,,,,,0,1410,0,,,,,,,,,,,,,,,
3039794,1501039142337,,,,,,,,,0,1575,0,,,,,,,,,,,,,,,
3039804,1501039142347,3.2,,0.01,-0.01,0.91,-1,-11,4,0,1620,0,,,,,,,,,,,,,,,
3039814,1501039142357,,,,,,,,,0,1605,0,,,,,,,,,,,,,,,
3039824,1501039142367,,,,,,,,,0,1560,0,,,,,,,,,,,,,,,
3039834,1501039142377,,,,,,,,,0,1530,0,,,,,,,,,,,,,,,
3039844,1501039142387,3.14,,-0.02,-0.02,0.91,-1,-9,3,0,1500,0,36.113674,-115.145676,0.0,6.475,2047.3,9,3,1.9,0,0.0,-1,0.0,0.0,0.0,0
3039854,1501039142399,,,,,,,,,0,1410,0,,,,,,,,,,,,,,,
3039864,1501039142409,,,,,,,,,0,1575,0,,,,,,,,,,,,,,,
3039874,1501039142419,,,,,,,,,0,1650,0,,,,,,,,,,,,,,,
3039884,1501039142429,3.18,,-0.05,-0.02,0.88,-1,-10,2,0,1635,0,,,,,,,,,,,,,,,
3039894,1501039142439,,,,,,,,,0,1590,0,,,,,,,,,,,,,,,
3039904,1501039142449,,,,,,,,,0,1560,0,,,,,,,,,,,,,,,
3039914,1501039142459,,,,,,,,,0,1530,0,,,,,,,,,,,,,,,
3039924,1501039142469,3.18,,-0.05,-0.04,0.92,-1,-6,3,0,1500,0,,,,,,,,,,,,,,,
3039934,1501039142479,,,,,,,,,0,1410,0,,,,,,,,,,,,,,,
3039944,1501039142489,,,,,,,,,0,1575,0,36.113674,-115.145676,0.0,6.475,2047.3,9,3,1.9,0,0.0,-1,0.0,0.0,0.0,0
3039954,1501039142499,,,,,,,,,0,1650,0,,,,,,,,,,,,,,,
3039964,1501039142509,3.17,,-0.07,-0.03,0.93,-1,-5,4,0,1620,0,,,,,,,,,,,,,,,
3039974,1501039142519,,,,,,,,,0,1605,0,,,,,,,,,,,,,,,
3039984,1501039142529,,,,,,,,,0,1560,0,,,,,,,,,,,,,,,
3039994,1501039142539,,,,,,,,,0,1530,0,,,,,,,,,,,,,,,
3040004,1501039142549,3.18,,-0.03,-0.04,1.08,-2,-2,5,0,1500,0,,,,,,,,,,,,,,,
3040014,1501039142559,,,,,,,,,0,1410,0,,,,,,,,,,,,,,,
3040024,1501039142569,,,,,,,,,0,1575,0,,,,,,,,,,,,,,,
3040034,1501039142579,,,,,,,,,0,1665,0,,,,,,,,,,,,,,,
3040044,1501039142589,3.18,4.5,-0.03,-0.05,1.08,-2,0,5,0,1635,0,36.113674,-115.145676,0.0,6.475,2047.3,9,3,1.9,0,0.0,-1,0.0,0.0,0.0,0
3040054,1501039142599,,,,,,,,,0,1560,0,,,,,,,,,,,,,,,
3040064,1501039142609,,,,,,,,,0,1530,0,,,,,,,,,,,,,,,
3040074,1501039142619,,,,,,,,,0,1530,0,,,,,,,,,,,,,,,
3040084,1501039142629,3.13,,-0.02,-0.05,1.16,-1,-3,4,0,1425,0,,,,,,,,,,,,,,,
3040094,1501039142639,,,,,,,,,0,1590,0,,,,,,,,,,,,,,,
3040104,1501039142649,,,,,,,,,0,1665,0,,,,,,,,,,,,,,,
3040114,1501039142659,,,,,,,,,0,1635,0,,,,,,,,,,,,,,,
3040124,1501039142669,3.17,,-0.01,-0.03,1.18,-1,-2,4,0,1605,0,,,,,,,,,,,,,,,
3040134,1501039142679,,,,,,,,,0,1560,0,,,,,,,,,,,,,,,
3040144,1501039142689,,,,,,,,,0,1545,0,36.113674,-115.145676,0.0,6.475,2047.3,9,3,1.9,0,0.0,-1,0.0,0.0,0.0,0
3040154,1501039142698,,,,,,,,,0,1500,0,,,,,,,,,,,,,,,
3040164,1501039142708,3.16,,-0.0,-0.04,1.1,-1,-4,4,0,1425,0,,,,,,,,,,,,,,,
3040174,1501039142718,,,,,,,,,0,1590,0,,,,,,,,,,,,,,,
3040184,1501039142728,,,,,,,,,0,1665,0,,,,,,,,,,,,,,,
3040194,1501039142738,,,,,,,,,0,1635,0,,,,,,,,,,,,,,,
3040204,1501039142748,3.18,,0.04,-0.03,1.04,-1,-6,5,0,1605,0,,,,,,,,,,,,,,,
3040214,1501039142758,,,,,,,,,0,1560,0,,,,,,,,,,,,,,,
3040224,1501039142768,,,,,,,,,0,1530,0,,,,,,,,,,,,,,,
3040234,1501039142778,,,,,,,,,0,1500,0,,,,,,,,,,,,,,,
3040244,1501039142788,3.16,,0.05,-0.02,0.98,-1,-10,4,0,1425,0,36.113674,-115.145676,0.0,6.475,2047.3,9,3,1.9,0,0.0,-1,0.0,0.0,0.0,0
3040254,1501039142798,,,,,,,,,0,1590,0,,,,,,,,,,,,,,,
3040264,1501039142808,,,,,,,,,0,1665,0,,,,,,,,,,,,,,,
3040274,1501039142818,,,,,,,,,0,1605,0,,,,,,,,,,,,,,,
3040284,1501039142828,3.13,,0.03,-0.01,0.98,-1,-10,5,0,1560,0,,,,,,,,,,,,,,,
3040294,1501039142838,,,,,,,,,0,1545,0,,,,,,,,,,,,,,,
3040304,1501039142848,,,,,,,,,0,1500,0,,,,,,,,,,,,,,,
3040314,1501039142858,,,,,,,,,0,1425,0,,,,,,,,,,,,,,,
3040324,1501039142868,3.17,,-0.01,-0.0,0.94,-1,-11,3,0,1590,0,,,,,,,,,,,,,,,
3040334,1501039142878,,,,,,,,,0,1650,0,,,,,,,,,,,,,,,
3040344,1501039142888,,,,,,,,,0,1620,0,36.113674,-115.145676,0.0,6.475,2047.3,9,3,1.9,0,0.0,-1,0.0,0.0,0.0,0
3040354,1501039142898,,,,,,,,,0,1605,0,,,,,,,,,,,,,,,
3040364,1501039142908,3.18,,-0.03,-0.02,0.99,-1,-8,4,0,1560,0,,,,,,,,,,,,,,,
3040374,1501039142918,,,,,,,,,0,1530,0,,,,,,,,,,,,,,,
3040384,1501039142928,,,,,,,,,0,1500,0,,,,,,,,,,,,,,,
3040394,1501039142938,,,,,,,,,0,1425,0,,,,,,,,,,,,,,,
3040404,1501039142948,3.19,,-0.06,0.0,1.02,-2,-5,5,0,1575,0,,,,,,,,,,,,,,,
3040414,1501039142958,,,,,,,,,0,1650,0,,,,,,,,,,,,,,,
3040424,1501039142968,,,,,,,,,0,1635,0,,,,,,,,,,,,,,,
3040434,1501039142978,,,,,,,,,0,1590,0,,,,,,,,,,,,,,,
3040444,1501039142988,3.18,,-0.06,-0.02,1.06,-2,-3,5,0,1560,0,36.113674,-115.145676,0.0,6.475,2047.3,9,3,1.9,0,0.0,-1,0.0,0.0,0.0,0
3040454,1501039142998,,,,,,,,,0,1530,0,,,,,,,,,,,,,,,
3040464,1501039143000,,,,,,,,,0,1500,0,,,,,,,,,,,,,,,
3040474,1501039143010,,,,,,,,,0,1425,0,,,,,,,,,,,,,,,
3040484,1501039143020,3.18,,-0.03,-0.02,1.14,-2,1,6,0,1575,0,,,,,,,,,,,,,,,
3040494,1501039143030,,,,,,,,,0,1665,0,,,,,,,,,,,,,,,
3040504,1501039143040,,,,,,,,,0,1635,0,,,,,,,,,,,,,,,
3040514,1501039143050,,,,,,,,,0,1560,0,,,,,,,,,,,,,,,
3040524,1501039143060,3.13,,-0.01,-0.05,1.12,-2,-2,5,0,1530,0,,,,,,,,,,,,,,,
3040534,1501039143070,,,,,,,,,0,1530,0,,,,,,,,,,,,,,,
3040544,1501039143080,,,,,,,,,0,1425,0,36.113674,-115.145676,0.0,6.475,2047.3,9,3,1.9,0,0.0,-1,0.0,0.0,0.0,0
3040554,1501039143096,,,,,,,,,0,1590,0,,,,,,,,,,,,,,,
3040564,1501039143106,3.17,,-0.01,-0.05,1.25,-2,-0,5,0,1650,0,,,,,,,,,,,,,,,
3040574,1501039143116,,,,,,,,,0,1635,0,,,,,,,,,,,,,,,
3040584,1501039143126,,,,,,,,,0,1605,0,,,,,,,,,,,,,,,
3040594,1501039143136,,,,,,,,,0,1560,0,,,,,,,,,,,,,,,
3040604,1501039143146,3.18,,-0.02,-0.02,1.18,-1,-3,4,0,1530,0,,,,,,,,,,,,,,,
3040614,1501039143156,,,,,,,,,0,1500,0,,,,,,,,,,,,,,,
3040624,1501039143166,,,,,,,,,0,1425,0,,,,,,,,,,,,,,,
3040634,1501039143176,,,,,,,,,0,1575,0,,,,,,,,,,,,,,,
3040644,1501039143186,3.2,,0.01,-0.04,1.16,-0,-5,3,0,1665,0,36.113674,-115.145676,0.0,6.475,2047.3,9,3,1.9,0,0.0,-1,0.0,0.0,0.0,0
3040654,1501039143198,,,,,,,,,0,1620,0,,,,,,,,,,,,,,,
3040664,1501039143208,,,,,,,,,0,1605,0,,,,,,,,,,,,,,,
3040674,1501039143218,,,,,,,,,0,1560,0,,,,,,,,,,,,,,,
3040684,1501039143228,3.18,,0.01,-0.01,1.06,-1,-7,4,0,1530,0,,,,,,,,,,,,,,,
3040694,1501039143238,,,,,,,,,0,1500,0,,,,,,,,,,,,,,,
3040704,1501039143248,,,,,,,,,0,1425,0,,,,,,,,,,,,,,,
3040714,1501039143258,,,,,,,,,0,1575,0,,,,,,,,,,,,,,,
3040724,1501039143268,3.2,,0.04,-0.03,1.02,-1,-10,4,0,1650,0,,,,,,,,,,,,,,,
3040734,1501039143278,,,,,,,,,0,1620,0,,,,,,,,,,,,,,,
3040744,1501039143288,,,,,,,,,0,1605,0,36.113674,-115.145676,0.0,6.475,2047.3,9,3,1.9,0,0.0,-1,0.0,0.0,0.0,0
3040754,1501039143298,,,,,,,,,0,1560,0,,,,,,,,,,,,,,,
3040764,1501039143308,3.18,,-0.0,-0.02,0.95,-1,-9,4,0,1530,0,,,,,,,,,,,,,,,
3040774,1501039143318,,,,,,,,,0,1500,0,,,,,,,,,,,,,,,
3040784,1501039143328,,,,,,,,,0,1575,0,,,,,,,,,,,,,,,
3040794,1501039143338,,,,,,,,,0,1650,0,,,,,,,,,,,,,,,
3040804,1501039143348,3.18,,-0.02,-0.01,0.94,-1,-11,3,0,1620,0,,,,,,,,,,,,,,,
3040814,1501039143358,,,,,,,,,0,1590,0,,,,,,,,,,,,,,,
3040824,1501039143368,,,,,,,,,0,1560,0,,,,,,,,,,,,,,,
3040834,1501039143378,,,,,,,,,0,1530,0,,,,,,,,,,,,,,,
3040844,1501039143388,3.19,,-0.04,-0.03,0.95,-1,-7,4,0,1500,0,36.113674,-115.145676,0.0,6.475,2047.3,9,3,1.9,0,0.0,-1,0.0,0.0,0.0,0
3040854,1501039143398,,,,,,,,,0,1410,0,,,,,,,,,,,,,,,
3040864,1501039143408,,,,,,,,,0,1575,0,,,,,,,,,,,,,,,
3040874,1501039143418,,,,,,,,,0,1650,0,,,,,,,,,,,,,,,
3040884,1501039143428,3.17,,-0.08,-0.03,0.9,-1,-5,4,0,1635,0,,,,,,,,,,,,,,,
3040894,1501039143438,,,,,,,,,0,1590,0,,,,,,,,,,,,,,,
3040904,1501039143448,,,,,,,,,0,1560,0,,,,,,,,,,,,,,,
3040914,1501039143458,,,,,,,,,0,1530,0,,,,,,,,,,,,,,,
3040924,1501039143468,3.17,,-0.04,-0.04,0.96,-2,-2,3,0,1500,0,,,,,,,,,,,,,,,
3040934,1501039143478,,,,,,,,,0,1425,0,,,,,,,,,,,,,,,
3040944,1501039143488,,,,,,,,,0,1575,0,36.113674,-115.145676,0.0,6.475,2047.3,9,3,1.9,0,0.0,-1,0.0,0.0,0.0,0
3040954,1501039143498,,,,,,,,,0,1650,0,,,,,,,,,,,,,,,
3040964,1501039143508,3.17,,-0.04,-0.04,0.97,-2,-0,4,0,1635,0,,,,,,,,,,,,,,,
3040974,1501039143518,,,,,,,,,0,1605,0,,,,,,,,,,,,,,,
3040984,1501039143528,,,,,,,,,0,1560,0,,,,,,,,,,,,,,,
3040994,1501039143538,,,,,,,,,0,1530,0,,,,,,,,,,,,,,,
3041004,1501039143548,3.17,,-0.01,-0.04,1.12,-2,-2,4,0,1500,0,,,,,,,,,,,,,,,
3041014,1501039143558,,,,,,,,,0,1590,0,,,,,,,,,,,,,,,
3041024,1501039143568,,,,,,,,,0,1650,0,,,,,,,,,,,,,,,
3041034,1501039143578,,,,,,,,,0,1635,0,,,,,,,,,,,,,,,
3041044,1501039143588,3.17,4.51,-0.01,-0.04,1.13,-2,-1,3,0,1590,0,36.113674,-115.145676,0.0,6.475,2047.3,9,3,1.9,0,0.0,-1,0.0,0.0,0.0,0
3041054,1501039143598,,,,,,,,,0,1560,0,,,,,,,,,,,,,,,
3041064,1501039143608,,,,,,,,,0,1530,0,,,,,,,,,,,,,,,
3041074,1501039143618,,,,,,,,,0,1500,0,,,,,,,,,,,,,,,
3041084,1501039143628,3.16,,-0.02,-0.02,1.09,-1,-3,2,0,1425,0,,,,,,,,,,,,,,,
3041094,1501039143638,,,,,,,,,0,1575,0,,,,,,,,,,,,,,,
3041104,1501039143648,,,,,,,,,0,1665,0,,,,,,,,,,,,,,,
3041114,1501039143658,,,,,,,,,0,1635,0,,,,,,,,,,,,,,,
3041124,1501039143668,3.17,,0.0,-0.01,1.06,-1,-4,3,0,1590,0,,,,,,,,,,,,,,,
3041134,1501039143678,,,,,,,,,0,1560,0,,,,,,,,,,,,,,,
3041144,1501039143688,,,,,,,,,0,1530,0,36.113674,-115.145676,0.0,6.475,2047.3,9,3,1.9,0,0.0,-1,0.0,0.0,0.0,0
3041154,1501039143697,,,,,,,,,0,1500,0,,,,,,,,,,,,,,,
3041164,1501039143707,3.15,,0.03,-0.04,1.0,-1,-8,4,0,1425,0,,,,,,,,,,,,,,,
3041174,1501039143717,,,,,,,,,0,1575,0,,,,,,,,,,,,,,,
3041184,1501039143727,,,,,,,,,0,1650,0,,,,,,,,,,,,,,,
3041194,1501039143737,,,,,,,,,0,1635,0,,,,,,,,,,,,,,,
3041204,1501039143747,3.18,,0.05,-0.04,0.98,-1,-9,4,0,1590,0,,,,,,,,,,,,,,,
3041214,1501039143757,,,,,,,,,0,1560,0,,,,,,,,,,,,,,,
3041224,1501039143767,,,,,,,,,0,1530,0,,,,,,,,,,,,,,,
3041234,1501039143777,,,,,,,,,0,1500,0,,,,,,,,,,,,,,,
3041244,1501039143787,3.12,,0.04,-0.02,0.85,-1,-11,2,0,1575,0,36.113674,-115.145676,0.0,6.475,2047.3,9,3,1.9,0,0.0,-1,0.0,0.0,0.0,0
3041254,1501039143797,,,,,,,,,0,1650,0,,,,,,,,,,,,,,,
3041264,1501039143807,,,,,,,,,0,1635,0,,,,,,,,,,,,,,,
3041274,1501039143817,,,,,,,,,0,1605,0,,,,,,,,,,,,,,,
3041284,1501039143827,3.18,,0.02,-0.02,0.9,-2,-9,3,0,1560,0,,,,,,,,,,,,,,,
3041294,1501039143837,,,,,,,,,0,1530,0,,,,,,,,,,,,,,,
3041304,1501039143847,,,,,,,,,0,1500,0,,,,,,,,,,,,,,,
3041314,1501039143857,,,,,,,,,0,1425,0,,,,,,,,,,,,,,,
3041324,1501039143867,3.18,,-0.03,0.0,0.81,-2,-5,4,0,1590,0,,,,,,,,,,,,,,,
3041334,1501039143877,,,,,,,,,0,1665,0,,,,,,,,,,,,,,,
3041344,1501039143887,,,,,,,,,0,1635,0,36.113674,-115.145676,0.0,6.475,2047.3,9,3,1.9,0,0.0,-1,0.0,0.0,0.0,0
3041354,1501039143897,,,,,,,,,0,1605,0,,,,,,,,,,,,,,,
3041364,1501039143907,3.18,,-0.04,-0.02,0.87,-2,-4,3,0,1560,0,,,,,,,,,,,,,,,
3041374,1501039143917,,,,,,,,,0,1530,0,,,,,,,,,,,,,,,
3041384,1501039143927,,,,,,,,,0,1500,0,,,,,,,,,,,,,,,
3041394,1501039143937,,,,,,,,,0,1425,0,,,,,,,,,,,,,,,
3041404,1501039143947,3.19,,-0.02,-0.01,0.85,-2,1,4,0,1590,0,,,,,,,,,,,,,,,
3041414,1501039143957,,,,,,,,,0,1665,0,,,,,,,,,,,,,,,
3041424,1501039143967,,,,,,,,,0,1635,0,,,,,,,,,,,,,,,
3041434,1501039143977,,,,,,,,,0,1605,0,,,,,,,,,,,,,,,
3041444,1501039143987,3.18,,-0.01,-0.05,0.92,-2,-0,4,0,1560,0,36.113674,-115.145676,0.0,6.475,2047.3,9,3,1.9,0,0.0,-1,0.0,0.0,0.0,0
3041454,1501039143991,,,,,,,,,0,1530,0,,,,,,,,,,,,,,,
3041464,1501039144001,,,,,,,,,0,1500,0,,,,,,,,,,,,,,,
3041474,1501039144011,,,,,,,,,0,1590,0,,,,,,,,,,,,,,,
3041484,1501039144021,3.17,,-0.0,-0.05,1.07,-2,1,3,0,1650,0,,,,,,,,,,,,,,,
3041494,1501039144031,,,,,,,,,0,1635,0,,,,,,,,,,,,,,,
3041504,1501039144041,,,,,,,,,0,1605,0,,,,,,,,,,,,,,,
3041514,1501039144051,,,,,,,,,0,1560,0,,,,,,,,,,,,,,,
3041524,1501039144061,3.18,,-0.01,-0.03,1.03,-1,-2,2,0,1530,0,,,,,,,,,,,,,,,
3041534,1501039144071,,,,,,,,,0,1500,0,,,,,,,,,,,,,,,
3041544,1501039144081,,,,,,,,,0,1425,0,36.113674,-115.145676,0.0,6.475,2047.3,9,3,1.9,0,0.0,-1,0.0,0.0,0.0,0
3041554,1501039144097,,,,,,,,,0,1590,0,,,,,,,,,,,,,,,
3041564,1501039144107,3.2,,-0.01,-0.03,1.08,-1,-4,2,0,1665,0,,,,,,,,,,,,,,,
3041574,1501039144117,,,,,,,,,0,1635,0,,,,,,,,,,,,,,,
3041584,1501039144127,,,,,,,,,0,1590,0,,,,,,,,,,,,,,,
3041594,1501039144137,,,,,,,,,0,1560,0,,,,,,,,,,,,,,,
3041604,1501039144147,3.19,,-0.02,0.0,1.01,-1,-5,3,0,1530,0,,,,,,,,,,,,,,,
3041614,1501039144157,,,,,,,,,0,1500,0,,,,,,,,,,,,,,,
3041624,1501039144167,,,,,,,,,0,1425,0,,,,,,,,,,,,,,,
3041634,1501039144177,,,,,,,,,0,1575,0,,,,,,,,,,,,,,,
3041644,1501039144187,3.2,,0.01,-0.01,0.98,-1,-9,4,0,1650,0,36.113674,-115.145676,0.0,6.475,2047.3,9,3,1.9,0,0.0,-1,0.0,0.0,0.0,0
3041654,1501039144197,,,,,,,,,0,1635,0,,,,,,,,,,,,,,,
3041664,1501039144207,,,,,,,,,0,1590,0,,,,,,,,,,,,,,,
3041674,1501039144217,,,,,,,,,0,1560,0,,,,,,,,,,,,,,,
3041684,1501039144227,3.18,,-0.01,-0.0,0.94,-1,-8,4,0,1530,0,,,,,,,,,,,,,,,
3041694,1501039144237,,,,,,,,,0,1485,0,,,,,,,,,,,,,,,
3041704,1501039144247,,,,,,,,,0,1575,0,,,,,,,,,,,,,,,
3041714,1501039144257,,,,,,,,,0,1650,0,,,,,,,,,,,,,,,
3041724,1501039144267,3.18,,-0.02,-0.02,0.92,-1,-10,3,0,1635,0,,,,,,,,,,,,,,,
3041734,1501039144277,,,,,,,,,0,1605,0,,,,,,,,,,,,,,,
3041744,1501039144287,,,,,,,,,0,1560,0,36.113674,-115.145676,0.0,6.475,2047.3,9,3,1.9,0,0.0,-1,0.0,0.0,0.0,0
3041754,1501039144297,,,,,,,,,0,1530,0,,,,,,,,,,,,,,,
3041764,1501039144307,3.19,,-0.05,-0.01,0.95,-2,-7,4,0,1500,0,,,,,,,,,,,,,,,
3041774,1501039144317,,,,,,,,,0,1410,0,,,,,,,,,,,,,,,
3041784,1501039144327,,,,,,,,,0,1575,0,,,,,,,,,,,,,,,
3041794,1501039144337,,,,,,,,,0,1650,0,,,,,,,,,,,,,,,
3041804,1501039144347,3.18,,-0.08,-0.02,0.89,-1,-7,4,0,1635,0,,,,,,,,,,,,,,,
3041814,1501039144357,,,,,,,,,0,1605,0,,,,,,,,,,,,,,,
3041824,1501039144367,,,,,,,,,0,1560,0,,,,,,,,,,,,,,,
3041834,1501039144377,,,,,,,,,0,1530,0,,,,,,,,,,,,,,,
3041844,1501039144387,3.19,,-0.04,-0.03,0.95,-2,-3,4,0,1500,0,36.113674,-115.145676,0.0,6.475,2047.3,9,3,1.9,0,0.0,-1,0.0,0.0,0.0,0
3041854,1501039144397,,,,,,,,,0,1425,0,,,,,,,,,,,,,,,
3041864,1501039144407,,,,,,,,,0,1575,0,,,,,,,,,,,,,,,
3041874,1501039144417,,,,,,,,,0,1665,0,,,,,,,,,,,,,,,
3041884,1501039144427,3.16,,-0.05,-0.03,0.95,-2,-0,5,0,1635,0,,,,,,,,,,,,,,,
3041894,1501039144437,,,,,,,,,0,1605,0,,,,,,,,,,,,,,,
3041904,1501039144447,,,,,,,,,0,1560,0,,,,,,,,,,,,,,,
3041914,1501039144457,,,,,,,,,0,1530,0,,,,,,,,,,,,,,,
3041924,1501039144467,3.18,,-0.02,-0.03,1.09,-3,-1,5,0,1500,0,,,,,,,,,,,,,,,
3041934,1501039144477,,,,,,,,,0,1425,0,,,,,,,,,,,,,,,
3041944,1501039144487,,,,,,,,,0,1665,0,36.113674,-115.145676,0.0,6.475,2047.3,9,3,1.9,0,0.0,-1,0.0,0.0,0.0,0
3041954,1501039144497,,,,,,,,,0,1635,0,,,,,,,,,,,,,,,
3041964,1501039144507,3.18,,-0.02,-0.02,1.11,-2,0,3,0,1590,0,,,,,,,,,,,,,,,
3041974,1501039144517,,,,,,,,,0,1560,0,,,,,,,,,,,,,,,
3041984,1501039144527,,,,,,,,,0,1530,0,,,,,,,,,,,,,,,
3041994,1501039144537,,,,,,,,,0,1500,0,,,,,,,,,,,,,,,
3042004,1501039144547,3.17,,-0.04,-0.0,1.07,-1,-1,2,0,1425,0,,,,,,,,,,,,,,,
3042014,1501039144557,,,,,,,,,0,1575,0,,,,,,,,,,,,,,,
3042024,1501039144567,,,,,,,,,0,1650,0,,,,,,,,,,,,,,,
3042034,1501039144577,,,,,,,,,0,1620,0,,,,,,,,,,,,,,,
3042044,1501039144587,3.18,4.49,-0.01,0.01,1.05,-1,-2,2,0,1590,0,36.113674,-115.145676,0.0,6.475,2047.3,9,3,1.9,0,0.0,-1,0.0,0.0,0.0,0
3042054,1501039144599,,,,,,,,,0,1560,0,,,,,,,,,,,,,,,
3042064,1501039144609,,,,,,,,,0,1530,0,,,,,,,,,,,,,,,
3042074,1501039144619,,,,,,,,,0,1485,0,,,,,,,,,,,,,,,
3042084,1501039144629,3.15,,0.01,-0.02,0.99,-1,-6,4,0,1425,0,,,,,,,,,,,,,,,
3042094,1501039144639,,,,,,,,,0,1575,0,,,,,,,,,,,,,,,
3042104,1501039144649,,,,,,,,,0,1650,0,,,,,,,,,,,,,,,
3042114,1501039144659,,,,,,,,,0,1620,0,,,,,,,,,,,,,,,
3042124,1501039144669,3.18,,0.04,-0.03,0.97,-1,-8,4,0,1590,0,,,,,,,,,,,,,,,
3042134,1501039144679,,,,,,,,,0,1545,0,,,,,,,,,,,,,,,
3042144,1501039144689,,,,,,,,,0,1530,0,36.113674,-115.145676,0.0,6.475,2047.3,9,3,1.9,0,0.0,-1,0.0,0.0,0.0,0
3042154,1501039144698,,,,,,,,,0,1485,0,,,,,,,,,,,,,,,
3042164,1501039144708,3.16,,0.04,-0.01,0.88,-1,-11,3,0,1410,0,,,,,,,,,,,,,,,
3042174,1501039144718,,,,,,,,,0,1575,0,,,,,,,,,,,,,,,
3042184,1501039144728,,,,,,,,,0,1620,0,,,,,,,,,,,,,,,
3042194,1501039144738,,,,,,,,,0,1590,0,,,,,,,,,,,,,,,
3042204,1501039144748,3.13,,0.03,-0.01,0.9,-1,-12,4,0,1545,0,,,,,,,,,,,,,,,
3042214,1501039144758,,,,,,,,,0,1515,0,,,,,,,,,,,,,,,
3042224,1501039144768,,,,,,,,,0,1485,0,,,,,,,,,,,,,,,
3042234,1501039144778,,,,,,,,,0,1410,0,,,,,,,,,,,,,,,
3042244,1501039144788,3.18,,-0.02,-0.01,0.85,-1,-11,4,0,1575,0,36.113674,-115.145676,0.0,6.475,2047.3,9,3,1.9,0,0.0,-1,0.0,0.0,0.0,0
3042254,1501039144798,,,,,,,,,0,1650,0,,,,,,,,,,,,,,,
3042264,1501039144808,,,,,,,,,0,1620,0,,,,,,,,,,,,,,,
3042274,1501039144818,,,,,,,,,0,1590,0,,,,,,,,,,,,,,,
3042284,1501039144828,3.18,,-0.04,-0.03,0.91,-1,-9,4,0,1560,0,,,,,,,,,,,,,,,
3042294,1501039144838,,,,,,,,,0,1530,0,,,,,,,,,,,,,,,
3042304,1501039144848,,,,,,,,,0,1485,0,,,,,,,,,,,,,,,
3042314,1501039144858,,,,,,,,,0,1410,0,,,,,,,,,,,,,,,
3042324,1501039144868,3.19,,-0.06,-0.01,0.92,-2,-6,5,0,1575,0,,,,,,,,,,,,,,,
3042334,1501039144878,,,,,,,,,0,1650,0,,,,,,,,,,,,,,,
3042344,1501039144888,,,,,,,,,0,1635,0,36.113674,-115.145676,0.0,6.475,2047.3,9,3,1.9,0,0.0,-1,0.0,0.0,0.0,0
3042354,1501039144898,,,,,,,,,0,1590,0,,,,,,,,,,,,,,,
3042364,1501039144908,3.18,,-0.07,-0.03,0.96,-2,-3,4,0,1560,0,,,,,,,,,,,,,,,
3042374,1501039144918,,,,,,,,,0,1530,0,,,,,,,,,,,,,,,
3042384,1501039144928,,,,,,,,,0,1485,0,,,,,,,,,,,,,,,
3042394,1501039144938,,,,,,,,,0,1410,0,,,,,,,,,,,,,,,
3042404,1501039144948,3.18,,-0.03,-0.02,1.03,-2,1,6,0,1575,0,,,,,,,,,,,,,,,
3042414,1501039144958,,,,,,,,,0,1650,0,,,,,,,,,,,,,,,
3042424,1501039144968,,,,,,,,,0,1620,0,,,,,,,,,,,,,,,
3042434,1501039144978,,,,,,,,,0,1605,0,,,,,,,,,,,,,,,
3042444,1501039144988,3.18,,-0.02,-0.04,1.02,-2,0,4,0,1560,0,36.113674,-115.145676,0.0,6.475,2047.3,9,3,1.9,0,0.0,-1,0.0,0.0,0.0,0
3042454,1501039144992,,,,,,,,,0,1530,0,,,,,,,,,,,,,,,
3042464,1501039145002,,,,,,,,,0,1485,0,,,,,,,,,,,,,,,
3042474,1501039145012,,,,,,,,,0,1575,0,,,,,,,,,,,,,,,
3042484,1501039145022,3.17,,-0.01,-0.05,1.18,-3,1,5,0,1650,0,,,,,,,,,,,,,,,
3042494,1501039145032,,,,,,,,,0,1620,0,,,,,,,,,,,,,,,
3042504,1501039145042,,,,,,,,,0,1590,0,,,,,,,,,,,,,,,
3042514,1501039145052,,,,,,,,,0,1560,0,,,,,,,,,,,,,,,
3042524,1501039145062,3.19,,-0.01,-0.03,1.14,-2,-1,4,0,1530,0,,,,,,,,,,,,,,,
3042534,1501039145072,,,,,,,,,0,1485,0,,,,,,,,,,,,,,,
3042544,1501039145082,,,,,,,,,0,1410,0,36.113674,-115.145676,0.0,6.475,2047.3,9,3,1.9,0,0.0,-1,0.0,0.0,0.0,0
3042554,1501039145094,,,,,,,,,0,1575,0,,,,,,,,,,,,,,,
3042564,1501039145104,3.19,,0.0,-0.03,1.1,-1,-2,3,0,1650,0,,,,,,,,,,,,,,,
3042574,1501039145114,,,,,,,,,0,1620,0,,,,,,,,,,,,,,,
3042584,1501039145124,,,,,,,,,0,1590,0,,,,,,,,,,,,,,,
3042594,1501039145134,,,,,,,,,0,1560,0,,,,,,,,,,,,,,,
3042604,1501039145144,3.19,,0.0,-0.0,1.03,-1,-4,3,0,1530,0,,,,,,,,,,,,,,,
3042614,1501039145154,,,,,,,,,0,1485,0,,,,,,,,,,,,,,,
3042624,1501039145164,,,,,,,,,0,1410,0,,,,,,,,,,,,,,,
3042634,1501039145174,,,,,,,,,0,1575,0,,,,,,,,,,,,,,,
3042644,1501039145184,3.19,,0.03,-0.03,0.96,-1,-7,4,0,1650,0,36.113674,-115.145676,0.0,6.475,2047.3,9,3,1.9,0,0.0,-1,0.0,0.0,0.0,0
3042654,1501039145198,,,,,,,,,0,1620,0,,,,,,,,,,,,,,,
3042664,1501039145208,,,,,,,,,0,1590,0,,,,,,,,,,,,,,,
3042674,1501039145218,,,,,,,,,0,1545,0,,,,,,,,,,,,,,,
3042684,1501039145228,3.18,,0.02,-0.02,0.94,-1,-7,4,0,1515,0,,,,,,,,,,,,,,,
3042694,1501039145238,,,,,,,,,0,1485,0,,,,,,,,,,,,,,,
3042704,1501039145248,,,,,,,,,0,1410,0,,,,,,,,,,,,,,,
3042714,1501039145258,,,,,,,,,0,1575,0,,,,,,,,,,,,,,,
3042724,1501039145268,3.13,,0.02,-0.01,0.88,-2,-10,3,0,1620,0,,,,,,,,,,,,,,,
3042734,1501039145278,,,,,,,,,0,1590,0,,,,,,,,,,,,,,,
3042744,1501039145288,,,,,,,,,0,1545,0,36.113674,-115.145676,0.0,6.475,2047.3,9,3,1.9,0,0.0,-1,0.0,0.0,0.0,0
3042754,1501039145298,,,,,,,,,0,1515,0,,,,,,,,,,,,,,,
3042764,1501039145308,3.14,,0.0,-0.02,0.9,-2,-8,3,0,1485,0,,,,,,,,,,,,,,,
3042774,1501039145318,,,,,,,,,0,1410,0,,,,,,,,,,,,,,,
3042784,1501039145328,,,,,,,,,0,1575,0,,,,,,,,,,,,,,,
3042794,1501039145338,,,,,,,,,0,1650,0,,,,,,,,,,,,,,,
3042804,1501039145348,3.16,,-0.04,-0.01,0.86,-1,-8,3,0,1620,0,,,,,,,,,,,,,,,
3042814,1501039145358,,,,,,,,,0,1590,0,,,,,,,,,,,,,,,
3042824,1501039145368,,,,,,,,,0,1545,0,,,,,,,,,,,,,,,
3042834,1501039145378,,,,,,,,,0,1530,0,,,,,,,,,,,,,,,
3042844,1501039145388,3.18,,-0.04,-0.03,0.9,-1,-4,3,0,1485,0,36.113674,-115.145676,0.0,6.475,2047.3,9,3,1.9,0,0.0,-1,0.0,0.0,0.0,0
3042854,1501039145398,,,,,,,,,0,1410,0,,,,,,,,,,,,,,,
3042864,1501039145408,,,,,,,,,0,1575,0,,,,,,,,,,,,,,,
3042874,1501039145418,,,,,,,,,0,1650,0,,,,,,,,,,,,,,,
3042884,1501039145428,3.16,,-0.08,-0.02,0.9,-2,-3,4,0,1635,0,,,,,,,,,,,,,,,
3042894,1501039145438,,,,,,,,,0,1590,0,,,,,,,,,,,,,,,
3042904,1501039145448,,,,,,,,,0,1560,0,,,,,,,,,,,,,,,
3042914,1501039145458,,,,,,,,,0,1530,0,,,,,,,,,,,,,,,
3042924,1501039145468,3.18,,-0.04,-0.03,0.99,-3,-1,7,0,1485,0,,,,,,,,,,,,,,,
3042934,1501039145478,,,,,,,,,0,1410,0,,,,,,,,,,,,,,,
3042944,1501039145488,,,,,,,,,0,1575,0,36.113674,-115.145676,0.0,6.475,2047.3,9,3,1.9,0,0.0,-1,0.0,0.0,0.0,0
3042954,1501039145498,,,,,,,,,0,1650,0,,,,,,,,,,,,,,,
3042964,1501039145508,3.16,,-0.04,-0.04,0.99,-3,2,6,0,1635,0,,,,,,,,,,,,,,,
3042974,1501039145518,,,,,,,,,0,1590,0,,,,,,,,,,,,,,,
3042984,1501039145528,,,,,,,,,0,1560,0,,,,,,,,,,,,,,,
3042994,1501039145538,,,,,,,,,0,1530,0,,,,,,,,,,,,,,,
3043004,1501039145548,3.18,,-0.03,-0.04,1.06,-2,0,4,0,1485,0,,,,,,,,,,,,,,,
3043014,1501039145558,,,,,,,,,0,1575,0,,,,,,,,,,,,,,,
3043024,1501039145568,,,,,,,,,0,1650,0,,,,,,,,,,,,,,,
3043034,1501039145578,,,,,,,,,0,1620,0,,,,,,,,,,,,,,,
3043044,1501039145588,3.17,4.49,-0.02,-0.05,1.14,-2,-0,3,0,1590,0,36.113674,-115.145676,0.0,6.475,2047.3,9,3,1.9,0,0.0,-1,0.0,0.0,0.0,0
3043054,1501039145598,,,,,,,,,0,1560,0,,,,,,,,,,,,,,,
3043064,1501039145608,,,,,,,,,0,1530,0,,,,,,,,,,,,,,,
3043074,1501039145618,,,,,,,,,0,1485,0,,,,,,,,,,,,,,,
3043084,1501039145628,3.16,,-0.03,-0.03,1.08,-1,-2,3,0,1410,0,,,,,,,,,,,,,,,
3043094,1501039145638,,,,,,,,,0,1575,0,,,,,,,,,,,,,,,
3043104,1501039145648,,,,,,,,,0,1650,0,,,,,,,,,,,,,,,
3043114,1501039145658,,,,,,,,,0,1620,0,,,,,,,,,,,,,,,
3043124,1501039145668,3.18,,0.0,-0.01,1.03,-1,-4,3,0,1590,0,,,,,,,,,,,,,,,
3043134,1501039145678,,,,,,,,,0,1560,0,,,,,,,,,,,,,,,
3043144,1501039145688,,,,,,,,,0,1530,0,36.113674,-115.145676,0.0,6.475,2047.3,9,3,1.9,0,0.0,-1,0.0,0.0,0.0,0
3043154,1501039145697,,,,,,,,,0,1500,0,,,,,,,,,,,,,,,
3043164,1501039145707,3.15,,0.03,-0.04,0.97,-1,-7,3,0,1410,0,,,,,,,,,,,,,,,
3043174,1501039145717,,,,,,,,,0,1575,0,,,,,,,,,,,,,,,
3043184,1501039145727,,,,,,,,,0,1665,0,,,,,,,,,,,,,,,
3043194,1501039145737,,,,,,,,,0,1635,0,,,,,,,,,,,,,,,
3043204,1501039145747,3.18,,0.05,-0.04,0.96,-1,-9,4,0,1590,0,,,,,,,,,,,,,,,
3043214,1501039145757,,,,,,,,,0,1560,0,,,,,,,,,,,,,,,
3043224,1501039145767,,,,,,,,,0,1530,0,,,,,,,,,,,,,,,
3043234,1501039145777,,,,,,,,,0,1485,0,,,,,,,,,,,,,,,
3043244,1501039145787,3.17,,0.05,-0.02,0.86,-1,-10,2,0,1425,0,36.113674,-115.145676,0.0,6.475,2047.3,9,3,1.9,0,0.0,-1,0.0,0.0,0.0,0
3043254,1501039145797,,,,,,,,,0,1650,0,,,,,,,,,,,,,,,
3043264,1501039145807,,,,,,,,,0,1620,0,,,,,,,,,,,,,,,
3043274,1501039145817,,,,,,,,,0,1590,0,,,,,,,,,,,,,,,
3043284,1501039145827,3.17,,0.03,-0.02,0.9,-1,-10,3,0,1560,0,,,,,,,,,,,,,,,
3043294,1501039145837,,,,,,,,,0,1530,0,,,,,,,,,,,,,,,
3043304,1501039145847,,,,,,,,,0,1500,0,,,,,,,,,,,,,,,
3043314,1501039145857,,,,,,,,,0,1410,0,,,,,,,,,,,,,,,
3043324,1501039145867,3.18,,-0.01,-0.01,0.84,-1,-7,3,0,1575,0,,,,,,,,,,,,,,,
3043334,1501039145877,,,,,,,,,0,1650,0,,,,,,,,,,,,,,,
3043344,1501039145887,,,,,,,,,0,1635,0,36.113674,-115.145676,0.0,6.475,2047.3,9,3,1.9,0,0.0,-1,0.0,0.0,0.0,0
3043354,1501039145897,,,,,,,,,0,1590,0,,,,,,,,,,,,,,,
3043364,1501039145907,3.18,,-0.03,-0.02,0.9,-1,-5,3,0,1560,0,,,,,,,,,,,,,,,
3043374,1501039145917,,,,,,,,,0,1530,0,,,,,,,,,,,,,,,
3043384,1501039145927,,,,,,,,,0,1485,0,,,,,,,,,,,,,,,
3043394,1501039145937,,,,,,,,,0,1410,0,,,,,,,,,,,,,,,
3043404,1501039145947,3.19,,-0.03,-0.0,0.9,-2,-2,4,0,1575,0,,,,,,,,,,,,,,,
3043414,1501039145957,,,,,,,,,0,1650,0,,,,,,,,,,,,,,,
3043424,1501039145967,,,,,,,,,0,1620,0,,,,,,,,,,,,,,,
3043434,1501039145977,,,,,,,,,0,1590,0,,,,,,,,,,,,,,,
3043444,1501039145987,3.17,,-0.04,-0.04,0.92,-2,-0,4,0,1560,0,36.113674,-115.145676,0.0,6.475,2047.3,9,3,1.9,0,0.0,-1,0.0,0.0,0.0,0
3043454,1501039145991,,,,,,,,,0,1530,0,,,,,,,,,,,,,,,
3043464,1501039146001,,,,,,,,,0,1485,0,,,,,,,,,,,,,,,
3043474,1501039146011,,,,,,,,,0,1410,0,,,,,,,,,,,,,,,
3043484,1501039146021,3.18,,-0.01,-0.04,1.08,-2,0,4,0,1575,0,,,,,,,,,,,,,,,
3043494,1501039146031,,,,,,,,,0,1620,0,,,,,,,,,,,,,,,
3043504,1501039146041,,,,,,,,,0,1590,0,,,,,,,,,,,,,,,
3043514,1501039146051,,,,,,,,,0,1560,0,,,,,,,,,,,,,,,
3043524,1501039146061,3.13,,-0.02,-0.02,1.04,-2,-0,3,0,1515,0,,,,,,,,,,,,,,,
3043534,1501039146071,,,,,,,,,0,1485,0,,,,,,,,,,,,,,,
3043544,1501039146081,,,,,,,,,0,1410,0,36.113674,-115.145676,0.0,6.475,2047.3,9,3,1.9,0,0.0,-1,0.0,0.0,0.0,0
3043554,1501039146097,,,,,,,,,0,1575,0,,,,,,,,,,,,,,,
3043564,1501039146107,3.18,,-0.02,-0.03,1.11,-1,-1,2,0,1650,0,,,,,,,,,,,,,,,
3043574,1501039146117,,,,,,,,,0,1620,0,,,,,,,,,,,,,,,
3043584,1501039146127,,,,,,,,,0,1590,0,,,,,,,,,,,,,,,
3043594,1501039146137,,,,,,,,,0,1545,0,,,,,,,,,,,,,,,
3043604,1501039146147,3.18,,-0.01,0.0,1.06,-1,-3,2,0,1530,0,,,,,,,,,,,,,,,
3043614,1501039146157,,,,,,,,,0,1485,0,,,,,,,,,,,,,,,
3043624,1501039146167,,,,,,,,,0,1410,0,,,,,,,,,,,,,,,
3043634,1501039146177,,,,,,,,,0,1575,0,,,,,,,,,,,,,,,
3043644,1501039146187,3.19,,0.01,-0.02,1.05,-0,-5,3,0,1650,0,36.113674,-115.145676,0.0,6.475,2047.3,9,3,1.9,0,0.0,-1,0.0,0.0,0.0,0
3043654,1501039146197,,,,,,,,,0,1620,0,,,,,,,,,,,,,,,
3043664,1501039146207,,,,,,,,,0,1590,0,,,,,,,,,,,,,,,
3043674,1501039146217,,,,,,,,,0,1545,0,,,,,,,,,,,,,,,
3043684,1501039146227,3.16,,0.02,-0.0,1.0,-0,-6,3,0,1530,0,,,,,,,,,,,,,,,
3043694,1501039146237,,,,,,,,,0,1485,0,,,,,,,,,,,,,,,
3043704,1501039146247,,,,,,,,,0,1410,0,,,,,,,,,,,,,,,
3043714,1501039146257,,,,,,,,,0,1575,0,,,,,,,,,,,,,,,
3043724,1501039146267,3.19,,0.02,-0.01,0.97,-1,-9,4,0,1650,0,,,,,,,,,,,,,,,
3043734,1501039146277,,,,,,,,,0,1620,0,,,,,,,,,,,,,,,
3043744,1501039146287,,,,,,,,,0,1590,0,36.113674,-115.145676,0.0,6.475,2047.3,9,3,1.9,0,0.0,-1,0.0,0.0,0.0,0
3043754,1501039146297,,,,,,,,,0,1545,0,,,,,,,,,,,,,,,
3043764,1501039146307,3.18,,0.01,-0.01,0.97,-1,-9,5,0,1530,0,,,,,,,,,,,,,,,
3043774,1501039146317,,,,,,,,,0,1485,0,,,,,,,,,,,,,,,
3043784,1501039146327,,,,,,,,,0,1410,0,,,,,,,,,,,,,,,
3043794,1501039146337,,,,,,,,,0,1650,0,,,,,,,,,,,,,,,
3043804,1501039146347,3.17,,-0.0,-0.01,0.91,-1,-11,3,0,1620,0,,,,,,,,,,,,,,,
3043814,1501039146357,,,,,,,,,0,1590,0,,,,,,,,,,,,,,,
3043824,1501039146367,,,,,,,,,0,1560,0,,,,,,,,,,,,,,,
3043834,1501039146377,,,,,,,,,0,1515,0,,,,,,,,,,,,,,,
3043844,1501039146387,3.18,,-0.02,-0.02,0.95,-1,-9,4,0,1485,0,36.113674,-115.145676,0.0,6.475,2047.3,9,3,1.9,0,0.0,-1,0.0,0.0,0.0,0
3043854,1501039146397,,,,,,,,,0,1410,0,,,,,,,,,,,,,,,
3043864,1501039146407,,,,,,,,,0,1575,0,,,,,,,,,,,,,,,
3043874,1501039146417,,,,,,,,,0,1650,0,,,,,,,,,,,,,,,
3043884,1501039146427,3.17,,-0.07,-0.01,0.9,-1,-7,4,0,1620,0,,,,,,,,,,,,,,,
3043894,1501039146437,,,,,,,,,0,1590,0,,,,,,,,,,,,,,,
3043904,1501039146447,,,,,,,,,0,1560,0,,,,,,,,,,,,,,,
3043914,1501039146457,,,,,,,,,0,1530,0,,,,,,,,,,,,,,,
3043924,1501039146467,3.17,,-0.05,-0.03,0.95,-1,-3,4,0,1485,0,,,,,,,,,,,,,,,
3043934,1501039146477,,,,,,,,,0,1410,0,,,,,,,,,,,,,,,
3043944,1501039146487,,,,,,,,,0,1575,0,36.113674,-115.145676,0.0,6.475,2047.3,9,3,1.9,0,0.0,-1,0.0,0.0,0.0,0
3043954,1501039146499,,,,,,,,,0,1650,0,,,,,,,,,,,,,,,
3043964,1501039146509,3.16,,-0.06,-0.02,0.93,-2,-1,4,0,1620,0,,,,,,,,,,,,,,,
3043974,1501039146519,,,,,,,,,0,1590,0,,,,,,,,,,,,,,,
3043984,1501039146529,,,,,,,,,0,1560,0,,,,,,,,,,,,,,,
3043994,1501039146539,,,,,,,,,0,1530,0,,,,,,,,,,,,,,,
3044004,1501039146549,3.18,,-0.03,-0.02,1.06,-3,-1,5,0,1485,0,,,,,,,,,,,,,,,
3044014,1501039146559,,,,,,,,,0,1410,0,,,,,,,,,,,,,,,
3044024,1501039146569,,,,,,,,,0,1575,0,,,,,,,,,,,,,,,
3044034,1501039146579,,,,,,,,,0,1620,0,,,,,,,,,,,,,,,
3044044,1501039146589,3.13,4.5,-0.03,-0.03,1.04,-2,2,4,0,1590,0,36.113674,-115.145676,0.0,6.475,2047.3,9,3,1.9,0,0.0,-1,0.0,0.0,0.0,0
3044054,1501039146599,,,,,,,,,0,1560,0,,,,,,,,,,,,,,,
3044064,1501039146609,,,,,,,,,0,1515,0,,,,,,,,,,,,,,,
3044074,1501039146619,,,,,,,,,0,1485,0,,,,,,,,,,,,,,,
3044084,1501039146629,3.12,,-0.05,-0.02,1.06,-2,0,3,0,1410,0,,,,,,,,,,,,,,,
3044094,1501039146639,,,,,,,,,0,1575,0,,,,,,,,,,,,,,,
3044104,1501039146649,,,,,,,,,0,1650,0,,,,,,,,,,,,,,,
3044114,1501039146659,,,,,,,,,0,1620,0,,,,,,,,,,,,,,,
3044124,1501039146669,3.17,,-0.02,-0.03,1.13,-2,-1,2,0,1605,0,,,,,,,,,,,,,,,
3044134,1501039146679,,,,,,,,,0,1560,0,,,,,,,,,,,,,,,
3044144,1501039146689,,,,,,,,,0,1530,0,36.113674,-115.145676,0.0,6.475,2047.3,9,3,1.9,0,0.0,-1,0.0,0.0,0.0,0
3044154,1501039146698,,,,,,,,,0,1485,0,,,,,,,,,,,,,,,
3044164,1501039146708,3.16,,-0.0,-0.05,1.05,-1,-4,3,0,1410,0,,,,,,,,,,,,,,,
3044174,1501039146718,,,,,,,,,0,1575,0,,,,,,,,,,,,,,,
3044184,1501039146728,,,,,,,,,0,1650,0,,,,,,,,,,,,,,,
3044194,1501039146738,,,,,,,,,0,1620,0,,,,,,,,,,,,,,,
3044204,1501039146748,3.19,,0.02,-0.03,1.03,-1,-6,4,0,1590,0,,,,,,,,,,,,,,,
3044214,1501039146758,,,,,,,,,0,1560,0,,,,,,,,,,,,,,,
3044224,1501039146768,,,,,,,,,0,1530,0,,,,,,,,,,,,,,,
3044234,1501039146778,,,,,,,,,0,1485,0,,,,,,,,,,,,,,,
3044244,1501039146788,3.15,,0.04,-0.02,0.96,-1,-8,3,0,1410,0,36.113674,-115.145676,0.0,6.475,2047.3,9,3,1.9,0,0.0,-1,0.0,0.0,0.0,0
3044254,1501039146798,,,,,,,,,0,1575,0,,,,,,,,,,,,,,,
3044264,1501039146808,,,,,,,,,0,1650,0,,,,,,,,,,,,,,,
3044274,1501039146818,,,,,,,,,0,1635,0,,,,,,,,,,,,,,,
3044284,1501039146828,3.18,,0.04,-0.01,0.98,-1,-10,3,0,1590,0,,,,,,,,,,,,,,,
3044294,1501039146838,,,,,,,,,0,1560,0,,,,,,,,,,,,,,,
3044304,1501039146848,,,,,,,,,0,1530,0,,,,,,,,,,,,,,,
3044314,1501039146858,,,,,,,,,0,1485,0,,,,,,,,,,,,,,,
3044324,1501039146868,3.12,,0.02,0.0,0.92,-1,-11,3,0,1575,0,,,,,,,,,,,,,,,
3044334,1501039146878,,,,,,,,,0,1650,0,,,,,,,,,,,,,,,
3044344,1501039146888,,,,,,,,,0,1635,0,36.113674,-115.145676,0.0,6.475,2047.3,9,3,1.9,0,0.0,-1,0.0,0.0,0.0,0
3044354,1501039146898,,,,,,,,,0,1590,0,,,,,,,,,,,,,,,
3044364,1501039146908,3.18,,-0.01,-0.01,0.97,-1,-9,3,0,1560,0,,,,,,,,,,,,,,,
3044374,1501039146918,,,,,,,,,0,1530,0,,,,,,,,,,,,,,,
3044384,1501039146928,,,,,,,,,0,1485,0,,,,,,,,,,,,,,,
3044394,1501039146938,,,,,,,,,0,1410,0,,,,,,,,,,,,,,,
3044404,1501039146948,3.19,,-0.05,-0.0,0.95,-1,-6,4,0,1575,0,,,,,,,,,,,,,,,
3044414,1501039146958,,,,,,,,,0,1650,0,,,,,,,,,,,,,,,
3044424,1501039146968,,,,,,,,,0,1620,0,,,,,,,,,,,,,,,
3044434,1501039146978,,,,,,,,,0,1590,0,,,,,,,,,,,,,,,
3044444,1501039146988,3.19,,-0.07,-0.01,0.97,-1,-4,4,0,1560,0,36.113674,-115.145676,0.0,6.475,2047.3,9,3,1.9,0,0.0,-1,0.0,0.0,0.0,0
3044454,1501039146998,,,,,,,,,0,1530,0,,,,,,,,,,,,,,,
3044464,1501039146998,,,,,,,,,0,1500,0,,,,,,,,,,,,,,,
3044474,1501039147008,,,,,,,,,0,1410,0,,,,,,,,,,,,,,,
3044484,1501039147018,3.19,,-0.02,-0.01,1.01,-2,-1,4,0,1575,0,,,,,,,,,,,,,,,
3044494,1501039147028,,,,,,,,,0,1650,0,,,,,,,,,,,,,,,
3044504,1501039147038,,,,,,,,,0,1620,0,,,,,,,,,,,,,,,
3044514,1501039147048,,,,,,,,,0,1590,0,,,,,,,,,,,,,,,
3044524,1501039147058,3.18,,-0.02,-0.05,1.02,-2,0,4,0,1560,0,,,,,,,,,,,,,,,
3044534,1501039147068,,,,,,,,,0,1530,0,,,,,,,,,,,,,,,
3044544,1501039147078,,,,,,,,,0,1485,0,36.113674,-115.145676,0.0,6.475,2047.3,9,3,1.9,0,0.0,-1,0.0,0.0,0.0,0
3044554,1501039147096,,,,,,,,,0,1410,0,,,,,,,,,,,,,,,
3044564,1501039147106,3.13,,-0.01,-0.05,1.15,-2,0,3,0,1650,0,,,,,,,,,,,,,,,
3044574,1501039147116,,,,,,,,,0,1635,0,,,,,,,,,,,,,,,
3044584,1501039147126,,,,,,,,,0,1590,0,,,,,,,,,,,,,,,
3044594,1501039147136,,,,,,,,,0,1560,0,,,,,,,,,,,,,,,
3044604,1501039147146,3.18,,-0.01,-0.03,1.11,-1,-1,2,0,1530,0,,,,,,,,,,,,,,,
3044614,1501039147156,,,,,,,,,0,1485,0,,,,,,,,,,,,,,,
3044624,1501039147166,,,,,,,,,0,1410,0,,,,,,,,,,,,,,,
3044634,1501039147176,,,,,,,,,0,1575,0,,,,,,,,,,,,,,,
3044644,1501039147186,3.19,,-0.02,-0.04,1.15,-0,-2,1,0,1650,0,36.113674,-115.145676,0.0,6.475,2047.3,9,3,1.9,0,0.0,-1,0.0,0.0,0.0,0
3044654,1501039147198,,,,,,,,,0,1620,0,,,,,,,,,,,,,,,
3044664,1501039147208,,,,,,,,,0,1590,0,,,,,,,,,,,,,,,
3044674,1501039147218,,,,,,,,,0,1560,0,,,,,,,,,,,,,,,
3044684,1501039147228,3.19,,-0.01,-0.01,1.09,-0,-4,2,0,1530,0,,,,,,,,,,,,,,,
3044694,1501039147238,,,,,,,,,0,1485,0,,,,,,,,,,,,,,,
3044704,1501039147248,,,,,,,,,0,1410,0,,,,,,,,,,,,,,,
3044714,1501039147258,,,,,,,,,0,1575,0,,,,,,,,,,,,,,,
3044724,1501039147268,3.2,,0.02,-0.04,1.02,-0,-5,2,0,1650,0,,,,,,,,,,,,,,,
3044734,1501039147278,,,,,,,,,0,1620,0,,,,,,,,,,,,,,,
3044744,1501039147288,,,,,,,,,0,1590,0,36.113674,-115.145676,0.0,6.475,2047.3,9,3,1.9,0,0.0,-1,0.0,0.0,0.0,0
3044754,1501039147298,,,,,,,,,0,1545,0,,,,,,,,,,,,,,,
3044764,1501039147308,3.18,,0.03,-0.03,0.99,-0,-6,3,0,1530,0,,,,,,,,,,,,,,,
3044774,1501039147318,,,,,,,,,0,1485,0,,,,,,,,,,,,,,,
3044784,1501039147328,,,,,,,,,0,1410,0,,,,,,,,,,,,,,,
3044794,1501039147338,,,,,,,,,0,1575,0,,,,,,,,,,,,,,,
3044804,1501039147348,3.19,,0.03,-0.02,0.94,-1,-9,2,0,1650,0,,,,,,,,,,,,,,,
3044814,1501039147358,,,,,,,,,0,1590,0,,,,,,,,,,,,,,,
3044824,1501039147368,,,,,,,,,0,1545,0,,,,,,,,,,,,,,,
3044834,1501039147378,,,,,,,,,0,1515,0,,,,,,,,,,,,,,,
3044844,1501039147388,3.19,,0.01,-0.02,0.95,-1,-8,3,0,1515,0,36.113674,-115.145676,0.0,6.475,2047.3,9,3,1.9,0,0.0,-1,0.0,0.0,0.0,0
3044854,1501039147398,,,,,,,,,0,1410,0,,,,,,,,,,,,,,,
3044864,1501039147408,,,,,,,,,0,1575,0,,,,,,,,,,,,,,,
3044874,1501039147418,,,,,,,,,0,1650,0,,,,,,,,,,,,,,,
3044884,1501039147428,3.16,,-0.01,-0.01,0.91,-1,-10,2,0,1620,0,,,,,,,,,,,,,,,
3044894,1501039147438,,,,,,,,,0,1590,0,,,,,,,,,,,,,,,
3044904,1501039147448,,,,,,,,,0,1545,0,,,,,,,,,,,,,,,
3044914,1501039147458,,,,,,,,,0,1515,0,,,,,,,,,,,,,,,
3044924,1501039147468,3.18,,-0.04,-0.03,0.95,-1,-7,2,0,1485,0,,,,,,,,,,,,,,,
3044934,1501039147478,,,,,,,,,0,1410,0,,,,,,,,,,,,,,,
3044944,1501039147488,,,,,,,,,0,1575,0,36.113674,-115.145676,0.0,6.475,2047.3,9,3,1.9,0,0.0,-1,0.0,0.0,0.0,0
3044954,1501039147498,,,,,,,,,0,1650,0,,,,,,,,,,,,,,,
3044964,1501039147508,3.16,,-0.09,-0.02,0.93,-1,-5,4,0,1620,0,,,,,,,,,,,,,,,
3044974,1501039147518,,,,,,,,,0,1590,0,,,,,,,,,,,,,,,
3044984,1501039147528,,,,,,,,,0,1545,0,,,,,,,,,,,,,,,
3044994,1501039147538,,,,,,,,,0,1515,0,,,,,,,,,,,,,,,
3045004,1501039147548,3.17,,-0.05,-0.03,0.96,-2,-3,4,0,1485,0,,,,,,,,,,,,,,,
3045014,1501039147558,,,,,,,,,0,1410,0,,,,,,,,,,,,,,,
3045024,1501039147568,,,,,,,,,0,1575,0,,,,,,,,,,,,,,,
3045034,1501039147578,,,,,,,,,0,1650,0,,,,,,,,,,,,,,,
3045044,1501039147588,3.16,4.5,-0.06,-0.03,0.94,-2,-0,5,0,1620,0,36.113674,-115.145676,0.0,6.475,2047.3,9,3,1.9,0,0.0,-1,0.0,0.0,0.0,0
3045054,1501039147598,,,,,,,,,0,1590,0,,,,,,,,,,,,,,,
3045064,1501039147608,,,,,,,,,0,1560,0,,,,,,,,,,,,,,,
3045074,1501039147618,,,,,,,,,0,1530,0,,,,,,,,,,,,,,,
3045084,1501039147628,3.17,,-0.03,-0.03,1.07,-2,-1,5,0,1485,0,,,,,,,,,,,,,,,
3045094,1501039147638,,,,,,,,,0,1410,0,,,,,,,,,,,,,,,
3045104,1501039147648,,,,,,,,,0,1650,0,,,,,,,,,,,,,,,
3045114,1501039147658,,,,,,,,,0,1620,0,,,,,,,,,,,,,,,
3045124,1501039147668,3.16,,-0.02,-0.05,1.06,-2,0,3,0,1590,0,,,,,,,,,,,,,,,
3045134,1501039147678,,,,,,,,,0,1560,0,,,,,,,,,,,,,,,
3045144,1501039147688,,,,,,,,,0,1530,0,36.113674,-115.145676,0.0,6.475,2047.3,9,3,1.9,0,0.0,-1,0.0,0.0,0.0,0
3045154,1501039147697,,,,,,,,,0,1485,0,,,,,,,,,,,,,,,
3045164,1501039147707,3.16,,-0.04,-0.03,1.08,-1,-1,2,0,1410,0,,,,,,,,,,,,,,,
3045174,1501039147717,,,,,,,,,0,1575,0,,,,,,,,,,,,,,,
3045184,1501039147727,,,,,,,,,0,1650,0,,,,,,,,,,,,,,,
3045194,1501039147737,,,,,,,,,0,1620,0,,,,,,,,,,,,,,,
3045204,1501039147747,3.18,,-0.01,-0.03,1.14,-0,-3,1,0,1590,0,,,,,,,,,,,,,,,
3045214,1501039147757,,,,,,,,,0,1560,0,,,,,,,,,,,,,,,
3045224,1501039147767,,,,,,,,,0,1530,0,,,,,,,,,,,,,,,
3045234,1501039147777,,,,,,,,,0,1485,0,,,,,,,,,,,,,,,
3045244,1501039147787,3.15,,0.0,-0.03,1.06,-0,-5,3,0,1410,0,36.113674,-115.145676,0.0,6.475,2047.3,9,3,1.9,0,0.0,-1,0.0,0.0,0.0,0
3045254,1501039147797,,,,,,,,,0,1575,0,,,,,,,,,,,,,,,
3045264,1501039147807,,,,,,,,,0,1650,0,,,,,,,,,,,,,,,
3045274,1501039147817,,,,,,,,,0,1620,0,,,,,,,,,,,,,,,
3045284,1501039147827,3.18,,0.03,-0.02,1.03,-1,-7,4,0,1590,0,,,,,,,,,,,,,,,
3045294,1501039147837,,,,,,,,,0,1560,0,,,,,,,,,,,,,,,
3045304,1501039147847,,,,,,,,,0,1530,0,,,,,,,,,,,,,,,
3045314,1501039147857,,,,,,,,,0,1485,0,,,,,,,,,,,,,,,
3045324,1501039147867,3.16,,0.04,-0.0,0.94,-1,-9,3,0,1410,0,,,,,,,,,,,,,,,
3045334,1501039147877,,,,,,,,,0,1575,0,,,,,,,,,,,,,,,
3045344,1501039147887,,,,,,,,,0,1650,0,36.113674,-115.145676,0.0,6.475,2047.3,9,3,1.9,0,0.0,-1,0.0,0.0,0.0,0
3045354,1501039147897,,,,,,,,,0,1590,0,,,,,,,,,,,,,,,
3045364,1501039147907,3.14,,0.02,0.0,0.94,-1,-11,4,0,1545,0,,,,,,,,,,,,,,,
3045374,1501039147917,,,,,,,,,0,1530,0,,,,,,,,,,,,,,,
3045384,1501039147927,,,,,,,,,0,1530,0,,,,,,,,,,,,,,,
3045394,1501039147937,,,,,,,,,0,1410,0,,,,,,,,,,,,,,,
3045404,1501039147947,3.17,,-0.01,0.0,0.92,-1,-12,2,0,1575,0,,,,,,,,,,,,,,,
3045414,1501039147957,,,,,,,,,0,1650,0,,,,,,,,,,,,,,,
3045424,1501039147967,,,,,,,,,0,1620,0,,,,,,,,,,,,,,,
3045434,1501039147977,,,,,,,,,0,1590,0,,,,,,,,,,,,,,,
3045444,1501039147987,3.19,,-0.04,-0.01,0.95,-1,-10,3,0,1560,0,36.113674,-115.145676,0.0,6.475,2047.3,9,3,1.9,0,0.0,-1,0.0,0.0,0.0,0
3045454,1501039147991,,,,,,,,,0,1515,0,,,,,,,,,,,,,,,
3045464,1501039148001,,,,,,,,,0,1485,0,,,,,,,,,,,,,,,
3045474,1501039148011,,,,,,,,,0,1410,0,,,,,,,,,,,,,,,
3045484,1501039148021,3.18,,-0.06,0.02,0.97,-1,-7,4,0,1575,0,,,,,,,,,,,,,,,
3045494,1501039148031,,,,,,,,,0,1650,0,,,,,,,,,,,,,,,
3045504,1501039148041,,,,,,,,,0,1620,0,,,,,,,,,,,,,,,
3045514,1501039148051,,,,,,,,,0,1590,0,,,,,,,,,,,,,,,
3045524,1501039148061,3.18,,-0.08,0.0,0.98,-1,-4,5,0,1545,0,,,,,,,,,,,,,,,
3045534,1501039148071,,,,,,,,,0,1515,0,,,,,,,,,,,,,,,
3045544,1501039148081,,,,,,,,,0,1485,0,36.113674,-115.145676,0.0,6.475,2047.3,9,3,1.9,0,0.0,-1,0.0,0.0,0.0,0
3045554,1501039148097,,,,,,,,,0,1410,0,,,,,,,,,,,,,,,
3045564,1501039148107,3.19,,-0.03,0.0,1.03,-2,-1,5,0,1575,0,,,,,,,,,,,,,,,
3045574,1501039148117,,,,,,,,,0,1650,0,,,,,,,,,,,,,,,
3045584,1501039148127,,,,,,,,,0,1635,0,,,,,,,,,,,,,,,
3045594,1501039148137,,,,,,,,,0,1590,0,,,,,,,,,,,,,,,
3045604,1501039148147,3.17,,-0.03,-0.04,1.03,-2,-1,4,0,1560,0,,,,,,,,,,,,,,,
3045614,1501039148157,,,,,,,,,0,1530,0,,,,,,,,,,,,,,,
3045624,1501039148167,,,,,,,,,0,1485,0,,,,,,,,,,,,,,,
3045634,1501039148177,,,,,,,,,0,1410,0,,,,,,,,,,,,,,,
3045644,1501039148187,3.12,,-0.02,-0.05,1.21,-2,1,4,0,1650,0,36.113674,-115.145676,0.0,6.475,2047.3,9,3,1.9,0,0.0,-1,0.0,0.0,0.0,0
3045654,1501039148197,,,,,,,,,0,1620,0,,,,,,,,,,,,,,,
3045664,1501039148207,,,,,,,,,0,1590,0,,,,,,,,,,,,,,,
3045674,1501039148217,,,,,,,,,0,1560,0,,,,,,,,,,,,,,,
3045684,1501039148227,3.18,,-0.02,-0.03,1.17,-2,-0,3,0,1515,0,,,,,,,,,,,,,,,
3045694,1501039148237,,,,,,,,,0,1485,0,,,,,,,,,,,,,,,
3045704,1501039148247,,,,,,,,,0,1410,0,,,,,,,,,,,,,,,
3045714,1501039148257,,,,,,,,,0,1575,0,,,,,,,,,,,,,,,
3045724,1501039148267,3.18,,-0.02,-0.03,1.13,-0,-2,2,0,1650,0,,,,,,,,,,,,,,,
3045734,1501039148277,,,,,,,,,0,1620,0,,,,,,,,,,,,,,,
3045744,1501039148287,,,,,,,,,0,1590,0,36.113674,-115.145676,0.0,6.475,2047.3,9,3,1.9,0,0.0,-1,0.0,0.0,0.0,0
3045754,1501039148297,,,,,,,,,0,1560,0,,,,,,,,,,,,,,,
3045764,1501039148307,3.19,,-0.0,-0.0,1.08,-1,-4,2,0,1530,0,,,,,,,,,,,,,,,
3045774,1501039148317,,,,,,,,,0,1485,0,,,,,,,,,,,,,,,
3045784,1501039148327,,,,,,,,,0,1410,0,,,,,,,,,,,,,,,
3045794,1501039148337,,,,,,,,,0,1575,0,,,,,,,,,,,,,,,
3045804,1501039148347,3.2,,0.03,-0.03,1.0,-0,-6,3,0,1650,0,,,,,,,,,,,,,,,
3045814,1501039148357,,,,,,,,,0,1620,0,,,,,,,,,,,,,,,
3045824,1501039148367,,,,,,,,,0,1590,0,,,,,,,,,,,,,,,
3045834,1501039148377,,,,,,,,,0,1545,0,,,,,,,,,,,,,,,
3045844,1501039148387,3.18,,0.04,-0.03,0.99,-1,-6,4,0,1515,0,36.113674,-115.145676,0.0,6.475,2047.3,9,3,1.9,0,0.0,-1,0.0,0.0,0.0,0
3045854,1501039148397,,,,,,,,,0,1485,0,,,,,,,,,,,,,,,
3045864,1501039148407,,,,,,,,,0,1410,0,,,,,,,,,,,,,,,
3045874,1501039148417,,,,,,,,,0,1575,0,,,,,,,,,,,,,,,
3045884,1501039148427,3.17,,0.03,-0.01,0.92,-1,-9,3,0,1650,0,,,,,,,,,,,,,,,
3045894,1501039148437,,,,,,,,,0,1590,0,,,,,,,,,,,,,,,
3045904,1501039148447,,,,,,,,,0,1545,0,,,,,,,,,,,,,,,
3045914,1501039148457,,,,,,,,,0,1530,0,,,,,,,,,,,,,,,
3045924,1501039148467,3.18,,0.02,-0.02,0.95,-2,-9,4,0,1530,0,,,,,,,,,,,,,,,
3045934,1501039148477,,,,,,,,,0,1410,0,,,,,,,,,,,,,,,
3045944,1501039148487,,,,,,,,,0,1575,0,36.113674,-115.145676,0.0,6.475,2047.3,9,3,1.9,0,0.0,-1,0.0,0.0,0.0,0
3045954,1501039148499,,,,,,,,,0,1650,0,,,,,,,,,,,,,,,
3045964,1501039148509,3.16,,-0.02,-0.01,0.9,-1,-10,2,0,1620,0,,,,,,,,,,,,,,,
3045974,1501039148519,,,,,,,,,0,1590,0,,,,,,,,,,,,,,,
3045984,1501039148529,,,,,,,,,0,1560,0,,,,,,,,,,,,,,,
3045994,1501039148539,,,,,,,,,0,1530,0,,,,,,,,,,,,,,,
3046004,1501039148549,3.18,,-0.04,-0.03,0.93,-1,-7,2,0,1500,0,,,,,,,,,,,,,,,
3046014,1501039148559,,,,,,,,,0,1410,0,,,,,,,,,,,,,,,
3046024,1501039148569,,,,,,,,,0,1575,0,,,,,,,,,,,,,,,
3046034,1501039148579,,,,,,,,,0,1650,0,,,,,,,,,,,,,,,
3046044,1501039148589,3.16,4.49,-0.08,-0.01,0.96,-1,-4,3,0,1635,0,36.113674,-115.145676,0.0,6.475,2047.3,9,3,1.9,0,0.0,-1,0.0,0.0,0.0,0
3046054,1501039148599,,,,,,,,,0,1590,0,,,,,,,,,,,,,,,
3046064,1501039148609,,,,,,,,,0,1560,0,,,,,,,,,,,,,,,
3046074,1501039148619,,,,,,,,,0,1530,0,,,,,,,,,,,,,,,
3046084,1501039148629,3.17,,-0.05,-0.01,1.01,-2,-2,4,0,1500,0,,,,,,,,,,,,,,,
3046094,1501039148639,,,,,,,,,0,1425,0,,,,,,,,,,,,,,,
3046104,1501039148649,,,,,,,,,0,1575,0,,,,,,,,,,,,,,,
3046114,1501039148659,,,,,,,,,0,1665,0,,,,,,,,,,,,,,,
3046124,1501039148669,3.15,,-0.04,-0.03,1.02,-2,-0,5,0,1620,0,,,,,,,,,,,,,,,
3046134,1501039148679,,,,,,,,,0,1590,0,,,,,,,,,,,,,,,
3046144,1501039148689,,,,,,,,,0,1560,0,36.113674,-115.145676,0.0,6.475,2047.3,9,3,1.9,0,0.0,-1,0.0,0.0,0.0,0
3046154,1501039148698,,,,,,,,,0,1530,0,,,,,,,,,,,,,,,
3046164,1501039148708,3.17,,-0.04,-0.03,1.12,-2,-1,4,0,1485,0,,,,,,,,,,,,,,,
3046174,1501039148718,,,,,,,,,0,1575,0,,,,,,,,,,,,,,,
3046184,1501039148728,,,,,,,,,0,1650,0,,,,,,,,,,,,,,,
3046194,1501039148738,,,,,,,,,0,1635,0,,,,,,,,,,,,,,,
3046204,1501039148748,3.17,,-0.02,-0.03,1.18,-2,-1,4,0,1590,0,,,,,,,,,,,,,,,
3046214,1501039148758,,,,,,,,,0,1560,0,,,,,,,,,,,,,,,
3046224,1501039148768,,,,,,,,,0,1530,0,,,,,,,,,,,,,,,
3046234,1501039148778,,,,,,,,,0,1485,0,,,,,,,,,,,,,,,
3046244,1501039148788,3.16,,-0.02,-0.02,1.12,-1,-2,4,0,1425,0,36.113674,-115.145676,0.0,6.475,2047.3,9,3,1.9,0,0.0,-1,0.0,0.0,0.0,0
3046254,1501039148798,,,,,,,,,0,1575,0,,,,,,,,,,,,,,,
3046264,1501039148808,,,,,,,,,0,1650,0,,,,,,,,,,,,,,,
3046274,1501039148818,,,,,,,,,0,1635,0,,,,,,,,,,,,,,,
3046284,1501039148828,3.18,,0.01,-0.0,1.09,-1,-5,5,0,1590,0,,,,,,,,,,,,,,,
3046294,1501039148838,,,,,,,,,0,1560,0,,,,,,,,,,,,,,,
3046304,1501039148848,,,,,,,,,0,1530,0,,,,,,,,,,,,,,,
3046314,1501039148858,,,,,,,,,0,1500,0,,,,,,,,,,,,,,,
3046324,1501039148868,3.15,,0.04,-0.02,1.04,-1,-7,4,0,1410,0,,,,,,,,,,,,,,,
3046334,1501039148878,,,,,,,,,0,1575,0,,,,,,,,,,,,,,,
3046344,1501039148888,,,,,,,,,0,1650,0,36.113674,-115.145676,0.0,6.475,2047.3,9,3,1.9,0,0.0,-1,0.0,0.0,0.0,0
3046354,1501039148898,,,,,,,,,0,1620,0,,,,,,,,,,,,,,,
3046364,1501039148908,3.18,,0.06,-0.03,1.0,-1,-8,4,0,1590,0,,,,,,,,,,,,,,,
3046374,1501039148918,,,,,,,,,0,1560,0,,,,,,,,,,,,,,,
3046384,1501039148928,,,,,,,,,0,1530,0,,,,,,,,,,,,,,,
3046394,1501039148938,,,,,,,,,0,1485,0,,,,,,,,,,,,,,,
3046404,1501039148948,3.16,,0.06,-0.01,0.91,-1,-10,4,0,1410,0,,,,,,,,,,,,,,,
3046414,1501039148958,,,,,,,,,0,1650,0,,,,,,,,,,,,,,,
3046424,1501039148968,,,,,,,,,0,1620,0,,,,,,,,,,,,,,,
3046434,1501039148978,,,,,,,,,0,1590,0,,,,,,,,,,,,,,,
3046444,1501039148988,3.17,,0.03,-0.01,0.93,-2,-10,3,0,1560,0,36.113674,-115.145676,0.0,6.475,2047.3,9,3,1.9,0,0.0,-1,0.0,0.0,0.0,0
3046454,1501039148998,,,,,,,,,0,1530,0,,,,,,,,,,,,,,,
3046464,1501039149000,,,,,,,,,0,1485,0,,,,,,,,,,,,,,,
3046474,1501039149010,,,,,,,,,0,1410,0,,,,,,,,,,,,,,,
3046484,1501039149020,3.18,,-0.0,-0.01,0.89,-1,-9,3,0,1575,0,,,,,,,,,,,,,,,
3046494,1501039149030,,,,,,,,,0,1650,0,,,,,,,,,,,,,,,
3046504,1501039149040,,,,,,,,,0,1620,0,,,,,,,,,,,,,,,
3046514,1501039149050,,,,,,,,,0,1590,0,,,,,,,,,,,,,,,
3046524,1501039149060,3.17,,-0.03,-0.01,0.92,-1,-6,4,0,1560,0,,,,,,,,,,,,,,,
3046534,1501039149070,,,,,,,,,0,1530,0,,,,,,,,,,,,,,,
3046544,1501039149080,,,,,,,,,0,1485,0,36.113674,-115.145676,0.0,6.475,2047.3,9,3,1.9,0,0.0,-1,0.0,0.0,0.0,0
3046554,1501039149098,,,,,,,,,0,1410,0,,,,,,,,,,,,,,,
3046564,1501039149108,3.18,,-0.04,0.0,0.91,-2,-3,5,0,1575,0,,,,,,,,,,,,,,,
3046574,1501039149118,,,,,,,,,0,1650,0,,,,,,,,,,,,,,,
3046584,1501039149128,,,,,,,,,0,1620,0,,,,,,,,,,,,,,,
3046594,1501039149138,,,,,,,,,0,1605,0,,,,,,,,,,,,,,,
3046604,1501039149148,3.17,,-0.05,-0.02,0.92,-2,-0,3,0,1560,0,,,,,,,,,,,,,,,
3046614,1501039149158,,,,,,,,,0,1530,0,,,,,,,,,,,,,,,
3046624,1501039149168,,,,,,,,,0,1485,0,,,,,,,,,,,,,,,
3046634,1501039149178,,,,,,,,,0,1410,0,,,,,,,,,,,,,,,
3046644,1501039149188,3.17,,-0.02,-0.01,1.03,-3,2,5,0,1575,0,36.113674,-115.145676,0.0,6.475,2047.3,9,3,1.9,0,0.0,-1,0.0,0.0,0.0,0
3046654,1501039149198,,,,,,,,,0,1665,0,,,,,,,,,,,,,,,
3046664,1501039149208,,,,,,,,,0,1605,0,,,,,,,,,,,,,,,
3046674,1501039149218,,,,,,,,,0,1560,0,,,,,,,,,,,,,,,
3046684,1501039149228,3.12,,-0.02,-0.03,0.99,-2,2,4,0,1530,0,,,,,,,,,,,,,,,
3046694,1501039149238,,,,,,,,,0,1500,0,,,,,,,,,,,,,,,
3046704,1501039149248,,,,,,,,,0,1410,0,,,,,,,,,,,,,,,
3046714,1501039149258,,,,,,,,,0,1575,0,,,,,,,,,,,,,,,
3046724,1501039149268,3.17,,-0.02,-0.05,1.16,-1,2,3,0,1650,0,,,,,,,,,,,,,,,
3046734,1501039149278,,,,,,,,,0,1635,0,,,,,,,,,,,,,,,
