038505189,,,,,,,,,0,0,0,,,,,,,,,,,,,,,
"Interval"|"ms"|0|0|1,"Utc"|"ms"|0|0|1,"Analog1"|""|0.0|5.0|25,"Battery"|"Volts"|0.0|20.0|1,"AccelX"|"G"|-3.0|3.0|25,"AccelY"|"G"|-3.0|3.0|25,"AccelZ"|"G"|-3.0|3.0|25,"Yaw"|"Deg/Sec"|-120|120|25,"Pitch"|"Deg/Sec"|-120|120|25,"Roll"|"Deg/Sec"|-120|120|25,"RPM"|""|0|10000|100,"EngineRPM"|""|0|10000|100,"AxleRpm"|""|0|10000|100,"Latitude"|"Degrees"|-180.0|180.0|10,"Longitude"|"Degrees"|-180.0|180.0|10,"Speed"|"mph"|0.0|150.0|10,"Distance"|"mi"|0.0|0.0|10,"Altitude"|"ft"|0.0|4000.0|10,"GPSSats"|""|0|20|10,"GPSQual"|""|0|5|10,"GPSDOP"|""|0.0|20.0|10,"LapCount"|""|0|0|10,"LapTime"|"Min"|0.0|0.0|10,"Sector"|""|0|0|10,"SectorTime"|"Min"|0.0|0.0|10,"PredTime"|"Min"|0.0|0.0|10,"ElapsedTime"|"Min"|0.0|0.0|10,"CurrentLap"|""|0|0|10
2610644,1501038713182,3.1,,-0.08,-0.02,0.94,-0,0,5,0,1590,0,36.113655,-115.145653,0.0,5.526,2028.1,9,3,1.8,0,0.0,-1,0.0,0.0,0.0,0
2610714,1501038713252,,,,,,,,,0,1620,0,,,,,,,,,,,,,,,
2610724,1501038713262,3.13,,-0.09,-0.02,0.89,-0,-0,6,0,1590,0,,,,,,,,,,,,,,,
2610734,1501038713272,,,,,,,,,0,1545,0,,,,,,,,,,,,,,,
2610744,1501038713282,,,,,,,,,0,1515,0,36.113655,-115.145653,0.0,5.526,2028.1,9,3,1.8,0,0.0,-1,0.0,0.0,0.0,0
2610754,1501038713293,,,,,,,,,0,1470,0,,,,,,,,,,,,,,,
2610764,1501038713303,3.16,,-0.08,-0.01,0.91,-0,1,6,0,1425,0,,,,,,,,,,,,,,,
2610774,1501038713313,,,,,,,,,0,1335,0,,,,,,,,,,,,,,,
2610784,1501038713323,,,,,,,,,0,1545,0,,,,,,,,,,,,,,,
2610794,1501038713333,,,,,,,,,0,1620,0,,,,,,,,,,,,,,,
2610804,1501038713343,3.15,,-0.08,-0.02,0.86,-1,1,6,0,1590,0,,,,,,,,,,,,,,,
2610814,1501038713353,,,,,,,,,0,1545,0,,,,,,,,,,,,,,,
2610824,1501038713363,,,,,,,,,0,1530,0,,,,,,,,,,,,,,,
2610834,1501038713373,,,,,,,,,0,1470,0,,,,,,,,,,,,,,,
2610844,1501038713383,3.17,,-0.07,-0.01,0.9,-1,1,6,0,1440,0,36.113655,-115.145653,0.0,5.526,2028.1,9,3,1.8,0,0.0,-1,0.0,0.0,0.0,0
2610854,1501038713393,,,,,,,,,0,1335,0,,,,,,,,,,,,,,,
2610864,1501038713403,,,,,,,,,0,1545,0,,,,,,,,,,,,,,,
2610874,1501038713413,,,,,,,,,0,1620,0,,,,,,,,,,,,,,,
2610884,1501038713423,3.16,,-0.07,-0.01,0.87,-1,2,7,0,1590,0,,,,,,,,,,,,,,,
2610894,1501038713433,,,,,,,,,0,1545,0,,,,,,,,,,,,,,,
2610904,1501038713443,,,,,,,,,0,1530,0,,,,,,,,,,,,,,,
2610914,1501038713453,,,,,,,,,0,1470,0,,,,,,,,,,,,,,,
2610924,1501038713463,3.16,,-0.05,-0.01,0.92,-1,2,8,0,1425,0,,,,,,,,,,,,,,,
2610934,1501038713473,,,,,,,,,0,1335,0,,,,,,,,,,,,,,,
2610944,1501038713483,,,,,,,,,0,1545,0,36.113655,-115.145653,0.0,5.526,2028.1,9,3,1.8,0,0.0,-1,0.0,0.0,0.0,0
2610954,1501038713493,,,,,,,,,0,1620,0,,,,,,,,,,,,,,,
2610964,1501038713503,3.17,,-0.06,-0.01,0.91,-2,3,9,0,1590,0,,,,,,,,,,,,,,,
2610974,1501038713513,,,,,,,,,0,1560,0,,,,,,,,,,,,,,,
2610984,1501038713523,,,,,,,,,0,1530,0,,,,,,,,,,,,,,,
2610994,1501038713533,,,,,,,,,0,1485,0,,,,,,,,,,,,,,,
2611004,1501038713543,3.19,,-0.02,0.01,0.94,-2,2,9,0,1440,0,,,,,,,,,,,,,,,
2611014,1501038713553,,,,,,,,,0,1335,0,,,,,,,,,,,,,,,
2611024,1501038713563,,,,,,,,,0,1545,0,,,,,,,,,,,,,,,
2611034,1501038713573,,,,,,,,,0,1620,0,,,,,,,,,,,,,,,
2611044,1501038713583,3.18,4.46,-0.02,-0.0,0.97,-3,1,10,0,1605,0,36.113655,-115.145653,0.0,5.526,2028.1,9,3,1.8,0,0.0,-1,0.0,0.0,0.0,0
2611054,1501038713593,,,,,,,,,0,1560,0,,,,,,,,,,,,,,,
2611064,1501038713603,,,,,,,,,0,1530,0,,,,,,,,,,,,,,,
2611074,1501038713613,,,,,,,,,0,1485,0,,,,,,,,,,,,,,,
2611084,1501038713623,3.23,,0.01,0.02,1.0,-3,-1,9,0,1440,0,,,,,,,,,,,,,,,
2611094,1501038713633,,,,,,,,,0,1335,0,,,,,,,,,,,,,,,
2611104,1501038713643,,,,,,,,,0,1560,0,,,,,,,,,,,,,,,
2611114,1501038713653,,,,,,,,,0,1635,0,,,,,,,,,,,,,,,
2611124,1501038713663,3.26,,-0.02,-0.0,1.02,-3,-1,8,0,1620,0,,,,,,,,,,,,,,,
2611134,1501038713673,,,,,,,,,0,1575,0,,,,,,,,,,,,,,,
2611144,1501038713683,,,,,,,,,0,1545,0,36.113655,-115.145653,0.0,5.526,2028.1,9,3,1.8,0,0.0,-1,0.0,0.0,0.0,0
2611154,1501038713693,,,,,,,,,0,1500,0,,,,,,,,,,,,,,,
2611164,1501038713703,3.3,,-0.01,0.03,1.04,-3,-3,7,0,1455,0,,,,,,,,,,,,,,,
2611174,1501038713713,,,,,,,,,0,1365,0,,,,,,,,,,,,,,,
2611184,1501038713723,,,,,,,,,0,1575,0,,,,,,,,,,,,,,,
2611194,1501038713733,,,,,,,,,0,1635,0,,,,,,,,,,,,,,,
2611204,1501038713743,3.23,,-0.02,0.02,1.06,-2,-4,6,0,1590,0,,,,,,,,,,,,,,,
2611214,1501038713753,,,,,,,,,0,1560,0,,,,,,,,,,,,,,,
2611224,1501038713763,,,,,,,,,0,1515,0,,,,,,,,,,,,,,,
2611234,1501038713773,,,,,,,,,0,1470,0,,,,,,,,,,,,,,,
2611244,1501038713783,3.22,,-0.06,0.02,1.06,-3,-9,6,0,1380,0,36.113655,-115.145653,0.0,5.526,2028.1,9,3,1.8,0,0.0,-1,0.0,0.0,0.0,0
2611254,1501038713793,,,,,,,,,0,1575,0,,,,,,,,,,,,,,,
2611264,1501038713803,,,,,,,,,0,1665,0,,,,,,,,,,,,,,,
2611274,1501038713813,,,,,,,,,0,1635,0,,,,,,,,,,,,,,,
2611284,1501038713823,3.25,,-0.03,0.04,0.99,-3,-15,5,0,1590,0,,,,,,,,,,,,,,,
2611294,1501038713833,,,,,,,,,0,1560,0,,,,,,,,,,,,,,,
2611304,1501038713843,,,,,,,,,0,1515,0,,,,,,,,,,,,,,,
2611314,1501038713853,,,,,,,,,0,1470,0,,,,,,,,,,,,,,,
2611324,1501038713863,3.21,,-0.04,0.02,0.93,-3,-17,4,0,1380,0,,,,,,,,,,,,,,,
2611334,1501038713873,,,,,,,,,0,1575,0,,,,,,,,,,,,,,,
2611344,1501038713883,,,,,,,,,0,1650,0,36.113655,-115.145653,0.0,5.526,2028.1,9,3,1.8,0,0.0,-1,0.0,0.0,0.0,0
2611354,1501038713893,,,,,,,,,0,1620,0,,,,,,,,,,,,,,,
2611364,1501038713903,3.21,,-0.0,-0.0,0.91,-3,-18,3,0,1575,0,,,,,,,,,,,,,,,
2611374,1501038713913,,,,,,,,,0,1545,0,,,,,,,,,,,,,,,
2611384,1501038713923,,,,,,,,,0,1500,0,,,,,,,,,,,,,,,
2611394,1501038713933,,,,,,,,,0,1455,0,,,,,,,,,,,,,,,
2611404,1501038713943,3.18,,0.06,-0.03,0.92,-3,-18,2,0,1365,0,,,,,,,,,,,,,,,
2611414,1501038713953,,,,,,,,,0,1560,0,,,,,,,,,,,,,,,
2611424,1501038713963,,,,,,,,,0,1635,0,,,,,,,,,,,,,,,
2611434,1501038713973,,,,,,,,,0,1605,0,,,,,,,,,,,,,,,
2611444,1501038713983,3.23,,0.05,-0.05,0.89,-3,-19,3,0,1560,0,36.113655,-115.145653,0.0,5.526,2028.1,9,3,1.8,0,0.0,-1,0.0,0.0,0.0,0
2611454,1501038713993,,,,,,,,,0,1530,0,,,,,,,,,,,,,,,
2611464,1501038713995,,,,,,,,,0,1485,0,,,,,,,,,,,,,,,
2611474,1501038714005,,,,,,,,,0,1440,0,,,,,,,,,,,,,,,
2611484,1501038714015,3.19,,0.1,-0.05,0.94,-4,-20,4,0,1350,0,,,,,,,,,,,,,,,
2611494,1501038714025,,,,,,,,,0,1530,0,,,,,,,,,,,,,,,
2611504,1501038714035,,,,,,,,,0,1620,0,,,,,,,,,,,,,,,
2611514,1501038714045,,,,,,,,,0,1590,0,,,,,,,,,,,,,,,
2611524,1501038714055,3.22,,0.09,-0.07,0.93,-4,-18,6,0,1545,0,,,,,,,,,,,,,,,
2611534,1501038714065,,,,,,,,,0,1515,0,,,,,,,,,,,,,,,
2611544,1501038714075,,,,,,,,,0,1470,0,36.113655,-115.145653,0.0,5.526,2028.1,9,3,1.8,0,0.0,-1,0.0,0.0,0.0,0
2611554,1501038714091,,,,,,,,,0,1425,0,,,,,,,,,,,,,,,
2611564,1501038714101,3.17,,0.13,-0.05,0.97,-4,-17,6,0,1320,0,,,,,,,,,,,,,,,
2611574,1501038714111,,,,,,,,,0,1545,0,,,,,,,,,,,,,,,
2611584,1501038714121,,,,,,,,,0,1605,0,,,,,,,,,,,,,,,
2611594,1501038714131,,,,,,,,,0,1590,0,,,,,,,,,,,,,,,
2611604,1501038714141,3.21,,0.11,-0.07,0.97,-5,-16,8,0,1530,0,,,,,,,,,,,,,,,
2611614,1501038714151,,,,,,,,,0,1515,0,,,,,,,,,,,,,,,
2611624,1501038714161,,,,,,,,,0,1470,0,,,,,,,,,,,,,,,
2611634,1501038714171,,,,,,,,,0,1425,0,,,,,,,,,,,,,,,
2611644,1501038714181,3.15,,0.14,-0.04,1.02,-5,-15,8,0,1320,0,36.113655,-115.145653,0.0,5.526,2028.1,9,3,1.8,0,0.0,-1,0.0,0.0,0.0,0
2611654,1501038714193,,,,,,,,,0,1545,0,,,,,,,,,,,,,,,
2611664,1501038714203,,,,,,,,,0,1620,0,,,,,,,,,,,,,,,
2611674,1501038714213,,,,,,,,,0,1590,0,,,,,,,,,,,,,,,
2611684,1501038714223,3.2,,0.11,-0.06,0.99,-5,-14,10,0,1545,0,,,,,,,,,,,,,,,
2611694,1501038714233,,,,,,,,,0,1515,0,,,,,,,,,,,,,,,
2611704,1501038714243,,,,,,,,,0,1470,0,,,,,,,,,,,,,,,
2611714,1501038714253,,,,,,,,,0,1440,0,,,,,,,,,,,,,,,
2611724,1501038714263,3.15,,0.14,-0.02,1.04,-6,-14,10,0,1335,0,,,,,,,,,,,,,,,
2611734,1501038714273,,,,,,,,,0,1560,0,,,,,,,,,,,,,,,
2611744,1501038714283,,,,,,,,,0,1620,0,36.113655,-115.145653,0.0,5.526,2028.1,9,3,1.8,0,0.0,-1,0.0,0.0,0.0,0
2611754,1501038714292,,,,,,,,,0,1590,0,,,,,,,,,,,,,,,
2611764,1501038714302,3.18,,0.11,-0.04,1.01,-6,-13,11,0,1560,0,,,,,,,,,,,,,,,
2611774,1501038714312,,,,,,,,,0,1530,0,,,,,,,,,,,,,,,
2611784,1501038714322,,,,,,,,,0,1485,0,,,,,,,,,,,,,,,
2611794,1501038714332,,,,,,,,,0,1440,0,,,,,,,,,,,,,,,
2611804,1501038714342,3.14,,0.12,-0.01,0.99,-6,-13,10,0,1335,0,,,,,,,,,,,,,,,
2611814,1501038714352,,,,,,,,,0,1560,0,,,,,,,,,,,,,,,
2611824,1501038714362,,,,,,,,,0,1635,0,,,,,,,,,,,,,,,
2611834,1501038714372,,,,,,,,,0,1560,0,,,,,,,,,,,,,,,
2611844,1501038714382,3.14,,0.08,-0.06,0.99,-5,-13,11,0,1545,0,36.113655,-115.145653,0.0,5.526,2028.1,9,3,1.8,0,0.0,-1,0.0,0.0,0.0,0
2611854,1501038714392,,,,,,,,,0,1545,0,,,,,,,,,,,,,,,
2611864,1501038714402,,,,,,,,,0,1500,0,,,,,,,,,,,,,,,
2611874,1501038714412,,,,,,,,,0,1455,0,,,,,,,,,,,,,,,
2611884,1501038714422,3.12,,0.05,-0.06,0.95,-5,-11,9,0,1560,0,,,,,,,,,,,,,,,
2611894,1501038714432,,,,,,,,,0,1635,0,,,,,,,,,,,,,,,
2611904,1501038714442,,,,,,,,,0,1620,0,,,,,,,,,,,,,,,
2611914,1501038714452,,,,,,,,,0,1560,0,,,,,,,,,,,,,,,
2611924,1501038714462,3.16,,0.04,-0.08,0.99,-4,-8,8,0,1545,0,,,,,,,,,,,,,,,
2611934,1501038714472,,,,,,,,,0,1500,0,,,,,,,,,,,,,,,
2611944,1501038714482,,,,,,,,,0,1455,0,36.113655,-115.145653,0.0,5.526,2028.1,9,3,1.8,0,0.0,-1,0.0,0.0,0.0,0
2611954,1501038714492,,,,,,,,,0,1365,0,,,,,,,,,,,,,,,
2611964,1501038714502,3.14,,-0.0,-0.07,0.96,-3,-5,7,0,1560,0,,,,,,,,,,,,,,,
2611974,1501038714512,,,,,,,,,0,1635,0,,,,,,,,,,,,,,,
2611984,1501038714522,,,,,,,,,0,1605,0,,,,,,,,,,,,,,,
2611994,1501038714532,,,,,,,,,0,1560,0,,,,,,,,,,,,,,,
2612004,1501038714542,3.14,,0.01,-0.06,1.02,-3,-1,7,0,1530,0,,,,,,,,,,,,,,,
2612014,1501038714552,,,,,,,,,0,1485,0,,,,,,,,,,,,,,,
2612024,1501038714562,,,,,,,,,0,1440,0,,,,,,,,,,,,,,,
2612034,1501038714572,,,,,,,,,0,1350,0,,,,,,,,,,,,,,,
2612044,1501038714582,3.15,4.52,-0.02,-0.01,1.01,-1,6,7,0,1560,0,36.113655,-115.145653,0.0,5.526,2028.1,9,3,1.8,0,0.0,-1,0.0,0.0,0.0,0
2612054,1501038714592,,,,,,,,,0,1635,0,,,,,,,,,,,,,,,
2612064,1501038714602,,,,,,,,,0,1605,0,,,,,,,,,,,,,,,
2612074,1501038714612,,,,,,,,,0,1560,0,,,,,,,,,,,,,,,
2612084,1501038714622,3.14,,0.01,0.01,1.07,-1,9,6,0,1530,0,,,,,,,,,,,,,,,
2612094,1501038714632,,,,,,,,,0,1485,0,,,,,,,,,,,,,,,
2612104,1501038714642,,,,,,,,,0,1440,0,,,,,,,,,,,,,,,
2612114,1501038714652,,,,,,,,,0,1350,0,,,,,,,,,,,,,,,
2612124,1501038714662,3.16,,0.04,0.01,1.1,-0,11,6,0,1560,0,,,,,,,,,,,,,,,
2612134,1501038714672,,,,,,,,,0,1635,0,,,,,,,,,,,,,,,
2612144,1501038714682,,,,,,,,,0,1605,0,36.113655,-115.145653,0.0,5.526,2028.1,9,3,1.8,0,0.0,-1,0.0,0.0,0.0,0
2612154,1501038714692,,,,,,,,,0,1560,0,,,,,,,,,,,,,,,
2612164,1501038714702,3.16,,0.04,0.02,1.12,-0,12,5,0,1530,0,,,,,,,,,,,,,,,
2612174,1501038714712,,,,,,,,,0,1500,0,,,,,,,,,,,,,,,
2612184,1501038714722,,,,,,,,,0,1440,0,,,,,,,,,,,,,,,
2612194,1501038714732,,,,,,,,,0,1350,0,,,,,,,,,,,,,,,
2612204,1501038714742,3.17,,0.07,0.0,1.14,-1,10,4,0,1560,0,,,,,,,,,,,,,,,
2612214,1501038714752,,,,,,,,,0,1635,0,,,,,,,,,,,,,,,
2612224,1501038714762,,,,,,,,,0,1605,0,,,,,,,,,,,,,,,
2612234,1501038714772,,,,,,,,,0,1560,0,,,,,,,,,,,,,,,
2612244,1501038714782,3.16,,0.04,0.01,1.12,-1,7,4,0,1530,0,36.113655,-115.145653,0.0,5.526,2028.1,9,3,1.8,0,0.0,-1,0.0,0.0,0.0,0
2612254,1501038714792,,,,,,,,,0,1485,0,,,,,,,,,,,,,,,
2612264,1501038714798,,,,,,,,,0,1440,0,,,,,,,,,,,,,,,
2612274,1501038714808,,,,,,,,,0,1350,0,,,,,,,,,,,,,,,
2612284,1501038714818,3.14,,0.07,0.01,1.14,-1,6,3,0,1560,0,,,,,,,,,,,,,,,
2612294,1501038714828,,,,,,,,,0,1635,0,,,,,,,,,,,,,,,
2612304,1501038714838,,,,,,,,,0,1605,0,,,,,,,,,,,,,,,
2612314,1501038714848,,,,,,,,,0,1560,0,,,,,,,,,,,,,,,
2612324,1501038714858,3.11,,0.04,0.01,1.09,-0,5,3,0,1530,0,,,,,,,,,,,,,,,
2612334,1501038714868,,,,,,,,,0,1485,0,,,,,,,,,,,,,,,
2612344,1501038714878,,,,,,,,,0,1455,0,36.113655,-115.145653,0.0,5.526,2028.1,9,3,1.8,0,0.0,-1,0.0,0.0,0.0,0
2612354,1501038714892,,,,,,,,,0,1350,0,,,,,,,,,,,,,,,
2612364,1501038714902,3.09,,0.05,0.01,1.16,-0,4,3,0,1545,0,,,,,,,,,,,,,,,
2612374,1501038714912,,,,,,,,,0,1635,0,,,,,,,,,,,,,,,
2612384,1501038714922,,,,,,,,,0,1590,0,,,,,,,,,,,,,,,
2612394,1501038714932,,,,,,,,,0,1545,0,,,,,,,,,,,,,,,
2612404,1501038714942,3.12,,0.04,0.02,1.12,0,3,2,0,1530,0,,,,,,,,,,,,,,,
2612414,1501038714952,,,,,,,,,0,1485,0,,,,,,,,,,,,,,,
2612424,1501038714962,,,,,,,,,0,1440,0,,,,,,,,,,,,,,,
2612434,1501038714972,,,,,,,,,0,1335,0,,,,,,,,,,,,,,,
2612444,1501038714982,3.11,,0.04,0.02,1.2,0,4,2,0,1560,0,36.113655,-115.145653,0.0,5.526,2028.1,9,3,1.8,0,0.0,-1,0.0,0.0,0.0,0
2612454,1501038714992,,,,,,,,,0,1590,0,,,,,,,,,,,,,,,
2612464,1501038714994,,,,,,,,,0,1545,0,,,,,,,,,,,,,,,
2612474,1501038715004,,,,,,,,,0,1530,0,,,,,,,,,,,,,,,
2612484,1501038715014,3.12,,0.03,0.03,1.16,1,3,2,0,1530,0,,,,,,,,,,,,,,,
2612494,1501038715024,,,,,,,,,0,1485,0,,,,,,,,,,,,,,,
2612504,1501038715034,,,,,,,,,0,1440,0,,,,,,,,,,,,,,,
2612514,1501038715044,,,,,,,,,0,1335,0,,,,,,,,,,,,,,,
2612524,1501038715054,3.04,,0.03,0.0,1.24,1,4,3,0,1620,0,,,,,,,,,,,,,,,
2612534,1501038715064,,,,,,,,,0,1590,0,,,,,,,,,,,,,,,
2612544,1501038715074,,,,,,,,,0,1560,0,36.113655,-115.145653,0.0,5.526,2028.1,9,3,1.8,0,0.0,-1,0.0,0.0,0.0,0
2612554,1501038715092,,,,,,,,,0,1530,0,,,,,,,,,,,,,,,
2612564,1501038715102,3.06,,0.01,0.03,1.18,1,2,3,0,1485,0,,,,,,,,,,,,,,,
2612574,1501038715112,,,,,,,,,0,1485,0,,,,,,,,,,,,,,,
2612584,1501038715122,,,,,,,,,0,1440,0,,,,,,,,,,,,,,,
2612594,1501038715132,,,,,,,,,0,1560,0,,,,,,,,,,,,,,,
2612604,1501038715142,3.09,,-0.01,0.01,1.27,0,2,4,0,1620,0,,,,,,,,,,,,,,,
2612614,1501038715152,,,,,,,,,0,1605,0,,,,,,,,,,,,,,,
2612624,1501038715162,,,,,,,,,0,1560,0,,,,,,,,,,,,,,,
2612634,1501038715172,,,,,,,,,0,1530,0,,,,,,,,,,,,,,,
2612644,1501038715182,3.14,,-0.02,0.05,1.2,-0,0,5,0,1485,0,36.113655,-115.145653,0.0,5.526,2028.1,9,3,1.8,0,0.0,-1,0.0,0.0,0.0,0
2612654,1501038715194,,,,,,,,,0,1455,0,,,,,,,,,,,,,,,
2612664,1501038715204,,,,,,,,,0,1350,0,,,,,,,,,,,,,,,
2612674,1501038715214,,,,,,,,,0,1560,0,,,,,,,,,,,,,,,
2612684,1501038715224,3.13,,-0.03,0.04,1.27,-0,1,4,0,1620,0,,,,,,,,,,,,,,,
2612694,1501038715234,,,,,,,,,0,1605,0,,,,,,,,,,,,,,,
2612704,1501038715244,,,,,,,,,0,1560,0,,,,,,,,,,,,,,,
2612714,1501038715254,,,,,,,,,0,1530,0,,,,,,,,,,,,,,,
2612724,1501038715264,3.17,,-0.03,0.05,1.19,-1,-1,5,0,1485,0,,,,,,,,,,,,,,,
2612734,1501038715274,,,,,,,,,0,1455,0,,,,,,,,,,,,,,,
2612744,1501038715284,,,,,,,,,0,1350,0,36.113655,-115.145653,0.0,5.526,2028.1,9,3,1.8,0,0.0,-1,0.0,0.0,0.0,0
2612754,1501038715291,,,,,,,,,0,1545,0,,,,,,,,,,,,,,,
2612764,1501038715301,3.15,,-0.01,0.02,1.15,-1,-2,4,0,1635,0,,,,,,,,,,,,,,,
2612774,1501038715311,,,,,,,,,0,1590,0,,,,,,,,,,,,,,,
2612784,1501038715321,,,,,,,,,0,1560,0,,,,,,,,,,,,,,,
2612794,1501038715331,,,,,,,,,0,1530,0,,,,,,,,,,,,,,,
2612804,1501038715341,3.19,,-0.01,0.01,1.09,-1,-4,4,0,1485,0,,,,,,,,,,,,,,,
2612814,1501038715351,,,,,,,,,0,1440,0,,,,,,,,,,,,,,,
2612824,1501038715361,,,,,,,,,0,1335,0,,,,,,,,,,,,,,,
2612834,1501038715371,,,,,,,,,0,1560,0,,,,,,,,,,,,,,,
2612844,1501038715381,3.17,,0.02,-0.03,1.06,-1,-5,3,0,1620,0,36.113655,-115.145653,0.0,5.526,2028.1,9,3,1.8,0,0.0,-1,0.0,0.0,0.0,0
2612854,1501038715391,,,,,,,,,0,1590,0,,,,,,,,,,,,,,,
2612864,1501038715401,,,,,,,,,0,1560,0,,,,,,,,,,,,,,,
2612874,1501038715411,,,,,,,,,0,1530,0,,,,,,,,,,,,,,,
2612884,1501038715421,3.2,,0.03,-0.06,1.02,-1,-5,2,0,1485,0,,,,,,,,,,,,,,,
2612894,1501038715431,,,,,,,,,0,1440,0,,,,,,,,,,,,,,,
2612904,1501038715441,,,,,,,,,0,1350,0,,,,,,,,,,,,,,,
2612914,1501038715451,,,,,,,,,0,1560,0,,,,,,,,,,,,,,,
2612924,1501038715461,3.2,,0.06,-0.07,0.99,-0,-7,1,0,1620,0,,,,,,,,,,,,,,,
2612934,1501038715471,,,,,,,,,0,1605,0,,,,,,,,,,,,,,,
2612944,1501038715481,,,,,,,,,0,1560,0,36.113655,-115.145653,0.0,5.526,2028.1,9,3,1.8,0,0.0,-1,0.0,0.0,0.0,0
2612954,1501038715493,,,,,,,,,0,1530,0,,,,,,,,,,,,,,,
2612964,1501038715503,3.2,,0.06,-0.1,0.93,0,-8,1,0,1485,0,,,,,,,,,,,,,,,
2612974,1501038715513,,,,,,,,,0,1440,0,,,,,,,,,,,,,,,
2612984,1501038715523,,,,,,,,,0,1350,0,,,,,,,,,,,,,,,
2612994,1501038715533,,,,,,,,,0,1560,0,,,,,,,,,,,,,,,
2613004,1501038715543,3.21,,0.09,-0.11,0.91,0,-9,1,0,1635,0,,,,,,,,,,,,,,,
2613014,1501038715553,,,,,,,,,0,1590,0,,,,,,,,,,,,,,,
2613024,1501038715563,,,,,,,,,0,1560,0,,,,,,,,,,,,,,,
2613034,1501038715573,,,,,,,,,0,1530,0,,,,,,,,,,,,,,,
2613044,1501038715583,3.21,4.5,0.07,-0.12,0.88,0,-8,2,0,1500,0,36.113655,-115.145653,0.0,5.526,2028.1,9,3,1.8,0,0.0,-1,0.0,0.0,0.0,0
2613054,1501038715591,,,,,,,,,0,1455,0,,,,,,,,,,,,,,,
2613064,1501038715601,,,,,,,,,0,1365,0,,,,,,,,,,,,,,,
2613074,1501038715611,,,,,,,,,0,1560,0,,,,,,,,,,,,,,,
2613084,1501038715621,3.22,,0.07,-0.09,0.88,0,-10,4,0,1650,0,,,,,,,,,,,,,,,
2613094,1501038715631,,,,,,,,,0,1605,0,,,,,,,,,,,,,,,
2613104,1501038715641,,,,,,,,,0,1575,0,,,,,,,,,,,,,,,
2613114,1501038715651,,,,,,,,,0,1530,0,,,,,,,,,,,,,,,
2613124,1501038715661,3.21,,0.04,-0.09,0.87,-0,-8,4,0,1500,0,,,,,,,,,,,,,,,
2613134,1501038715671,,,,,,,,,0,1455,0,,,,,,,,,,,,,,,
2613144,1501038715681,,,,,,,,,0,1365,0,36.113655,-115.145653,0.0,5.526,2028.1,9,3,1.8,0,0.0,-1,0.0,0.0,0.0,0
2613154,1501038715693,,,,,,,,,0,1560,0,,,,,,,,,,,,,,,
2613164,1501038715703,3.17,,0.02,-0.05,0.87,-0,-11,5,0,1605,0,,,,,,,,,,,,,,,
2613174,1501038715713,,,,,,,,,0,1575,0,,,,,,,,,,,,,,,
2613184,1501038715723,,,,,,,,,0,1545,0,,,,,,,,,,,,,,,
2613194,1501038715733,,,,,,,,,0,1500,0,,,,,,,,,,,,,,,
2613204,1501038715743,3.21,,-0.01,-0.06,0.88,-1,-8,4,0,1455,0,,,,,,,,,,,,,,,
2613214,1501038715753,,,,,,,,,0,1365,0,,,,,,,,,,,,,,,
2613224,1501038715763,,,,,,,,,0,1575,0,,,,,,,,,,,,,,,
2613234,1501038715773,,,,,,,,,0,1635,0,,,,,,,,,,,,,,,
2613244,1501038715783,3.21,,-0.04,-0.04,0.92,-0,-11,4,0,1620,0,36.113655,-115.145653,0.0,5.526,2028.1,9,3,1.8,0,0.0,-1,0.0,0.0,0.0,0
2613254,1501038715791,,,,,,,,,0,1575,0,,,,,,,,,,,,,,,
2613264,1501038715801,,,,,,,,,0,1545,0,,,,,,,,,,,,,,,
2613274,1501038715811,,,,,,,,,0,1500,0,,,,,,,,,,,,,,,
2613284,1501038715821,3.21,,-0.05,-0.05,0.95,-1,-8,3,0,1470,0,,,,,,,,,,,,,,,
2613294,1501038715831,,,,,,,,,0,1380,0,,,,,,,,,,,,,,,
2613304,1501038715841,,,,,,,,,0,1560,0,,,,,,,,,,,,,,,
2613314,1501038715851,,,,,,,,,0,1635,0,,,,,,,,,,,,,,,
2613324,1501038715861,3.2,,-0.05,-0.04,0.86,-1,-8,5,0,1620,0,,,,,,,,,,,,,,,
2613334,1501038715871,,,,,,,,,0,1575,0,,,,,,,,,,,,,,,
2613344,1501038715881,,,,,,,,,0,1545,0,36.113655,-115.145653,0.0,5.526,2028.1,9,3,1.8,0,0.0,-1,0.0,0.0,0.0,0
2613354,1501038715893,,,,,,,,,0,1500,0,,,,,,,,,,,,,,,
2613364,1501038715903,3.2,,-0.03,-0.03,0.9,-1,-4,5,0,1470,0,,,,,,,,,,,,,,,
2613374,1501038715913,,,,,,,,,0,1380,0,,,,,,,,,,,,,,,
2613384,1501038715923,,,,,,,,,0,1575,0,,,,,,,,,,,,,,,
2613394,1501038715933,,,,,,,,,0,1635,0,,,,,,,,,,,,,,,
2613404,1501038715943,3.2,,-0.06,-0.03,0.92,-1,-4,4,0,1620,0,,,,,,,,,,,,,,,
2613414,1501038715953,,,,,,,,,0,1575,0,,,,,,,,,,,,,,,
2613424,1501038715963,,,,,,,,,0,1545,0,,,,,,,,,,,,,,,
2613434,1501038715973,,,,,,,,,0,1500,0,,,,,,,,,,,,,,,
2613444,1501038715983,3.21,,-0.02,-0.03,0.99,-2,-2,4,0,1470,0,36.113655,-115.145653,0.0,5.526,2028.1,9,3,1.8,0,0.0,-1,0.0,0.0,0.0,0
2613454,1501038715993,,,,,,,,,0,1380,0,,,,,,,,,,,,,,,
2613464,1501038715995,,,,,,,,,0,1575,0,,,,,,,,,,,,,,,
2613474,1501038716005,,,,,,,,,0,1650,0,,,,,,,,,,,,,,,
2613484,1501038716015,3.2,,-0.03,-0.02,0.95,-2,-2,3,0,1620,0,,,,,,,,,,,,,,,
2613494,1501038716025,,,,,,,,,0,1590,0,,,,,,,,,,,,,,,
2613504,1501038716035,,,,,,,,,0,1560,0,,,,,,,,,,,,,,,
2613514,1501038716045,,,,,,,,,0,1515,0,,,,,,,,,,,,,,,
2613524,1501038716055,3.21,,-0.01,0.0,1.11,-2,-2,3,0,1485,0,,,,,,,,,,,,,,,
2613534,1501038716065,,,,,,,,,0,1590,0,,,,,,,,,,,,,,,
2613544,1501038716075,,,,,,,,,0,1650,0,36.113655,-115.145653,0.0,5.526,2028.1,9,3,1.8,0,0.0,-1,0.0,0.0,0.0,0
2613554,1501038716085,,,,,,,,,0,1620,0,,,,,,,,,,,,,,,
2613564,1501038716099,3.2,,-0.01,-0.0,1.09,-1,-1,3,0,1590,0,,,,,,,,,,,,,,,
2613574,1501038716109,,,,,,,,,0,1560,0,,,,,,,,,,,,,,,
2613584,1501038716119,,,,,,,,,0,1530,0,,,,,,,,,,,,,,,
2613594,1501038716129,,,,,,,,,0,1485,0,,,,,,,,,,,,,,,
2613604,1501038716139,3.19,,0.01,0.01,1.1,-0,-2,3,0,1395,0,,,,,,,,,,,,,,,
2613614,1501038716149,,,,,,,,,0,1590,0,,,,,,,,,,,,,,,
2613624,1501038716159,,,,,,,,,0,1665,0,,,,,,,,,,,,,,,
2613634,1501038716169,,,,,,,,,0,1635,0,,,,,,,,,,,,,,,
2613644,1501038716179,3.23,,0.02,0.01,1.07,-1,-1,3,0,1605,0,36.113655,-115.145653,0.0,5.526,2028.1,9,3,1.8,0,0.0,-1,0.0,0.0,0.0,0
2613654,1501038716193,,,,,,,,,0,1575,0,,,,,,,,,,,,,,,
2613664,1501038716203,,,,,,,,,0,1530,0,,,,,,,,,,,,,,,
2613674,1501038716213,,,,,,,,,0,1500,0,,,,,,,,,,,,,,,
2613684,1501038716223,3.19,,0.03,-0.02,1.07,-1,-5,3,0,1410,0,,,,,,,,,,,,,,,
2613694,1501038716233,,,,,,,,,0,1590,0,,,,,,,,,,,,,,,
2613704,1501038716243,,,,,,,,,0,1650,0,,,,,,,,,,,,,,,
2613714,1501038716253,,,,,,,,,0,1635,0,,,,,,,,,,,,,,,
2613724,1501038716263,3.21,,0.04,-0.04,0.99,-1,-5,3,0,1590,0,,,,,,,,,,,,,,,
2613734,1501038716273,,,,,,,,,0,1560,0,,,,,,,,,,,,,,,
2613744,1501038716283,,,,,,,,,0,1530,0,36.113655,-115.145653,0.0,5.526,2028.1,9,3,1.8,0,0.0,-1,0.0,0.0,0.0,0
2613754,1501038716293,,,,,,,,,0,1485,0,,,,,,,,,,,,,,,
2613764,1501038716300,3.2,,0.05,-0.04,0.95,-1,-8,4,0,1410,0,,,,,,,,,,,,,,,
2613774,1501038716310,,,,,,,,,0,1575,0,,,,,,,,,,,,,,,
2613784,1501038716320,,,,,,,,,0,1620,0,,,,,,,,,,,,,,,
2613794,1501038716330,,,,,,,,,0,1575,0,,,,,,,,,,,,,,,
2613804,1501038716340,3.16,,0.02,-0.02,0.99,-2,-8,5,0,1560,0,,,,,,,,,,,,,,,
2613814,1501038716350,,,,,,,,,0,1515,0,,,,,,,,,,,,,,,
2613824,1501038716360,,,,,,,,,0,1470,0,,,,,,,,,,,,,,,
2613834,1501038716370,,,,,,,,,0,1380,0,,,,,,,,,,,,,,,
2613844,1501038716380,3.21,,-0.01,-0.02,0.94,-1,-9,3,0,1575,0,36.113655,-115.145653,0.0,5.526,2028.1,9,3,1.8,0,0.0,-1,0.0,0.0,0.0,0
2613854,1501038716392,,,,,,,,,0,1635,0,,,,,,,,,,,,,,,
2613864,1501038716402,,,,,,,,,0,1605,0,,,,,,,,,,,,,,,
2613874,1501038716412,,,,,,,,,0,1575,0,,,,,,,,,,,,,,,
2613884,1501038716422,3.21,,-0.02,-0.02,0.94,-1,-7,4,0,1545,0,,,,,,,,,,,,,,,
2613894,1501038716432,,,,,,,,,0,1500,0,,,,,,,,,,,,,,,
2613904,1501038716442,,,,,,,,,0,1470,0,,,,,,,,,,,,,,,
2613914,1501038716452,,,,,,,,,0,1380,0,,,,,,,,,,,,,,,
2613924,1501038716462,3.22,,-0.03,-0.01,0.85,-1,-5,4,0,1575,0,,,,,,,,,,,,,,,
2613934,1501038716472,,,,,,,,,0,1620,0,,,,,,,,,,,,,,,
2613944,1501038716482,,,,,,,,,0,1605,0,36.113655,-115.145653,0.0,5.526,2028.1,9,3,1.8,0,0.0,-1,0.0,0.0,0.0,0
2613954,1501038716492,,,,,,,,,0,1560,0,,,,,,,,,,,,,,,
2613964,1501038716502,3.21,,-0.02,-0.02,0.88,-1,-5,5,0,1545,0,,,,,,,,,,,,,,,
2613974,1501038716512,,,,,,,,,0,1500,0,,,,,,,,,,,,,,,
2613984,1501038716522,,,,,,,,,0,1455,0,,,,,,,,,,,,,,,
2613994,1501038716532,,,,,,,,,0,1365,150,,,,,,,,,,,,,,,
2614004,1501038716542,3.27,,0.0,-0.01,0.88,-2,-3,5,0,1575,150,,,,,,,,,,,,,,,
2614014,1501038716552,,,,,,,,,0,1620,150,,,,,,,,,,,,,,,
2614024,1501038716562,,,,,,,,,0,1605,150,,,,,,,,,,,,,,,
2614034,1501038716572,,,,,,,,,0,1560,150,,,,,,,,,,,,,,,
2614044,1501038716582,3.26,4.53,0.09,-0.05,0.98,-2,-4,5,0,1530,150,36.113655,-115.145653,0.0,5.526,2028.1,9,3,1.8,0,0.0,-1,0.0,0.0,0.0,0
2614054,1501038716592,,,,,,,,,0,1500,150,,,,,,,,,,,,,,,
2614064,1501038716602,,,,,,,,,0,1455,150,,,,,,,,,,,,,,,
2614074,1501038716612,,,,,,,,,0,1365,150,,,,,,,,,,,,,,,
2614084,1501038716622,3.27,,0.18,-0.03,1.03,-2,-6,5,0,1560,150,,,,,,,,,,,,,,,
2614094,1501038716632,,,,,,,,,0,1620,150,,,,,,,,,,,,,,,
2614104,1501038716642,,,,,,,,,0,1590,150,,,,,,,,,,,,,,,
2614114,1501038716652,,,,,,,,,0,1545,10000000,,,,,,,,,,,,,,,
2614124,1501038716662,3.28,,0.31,-0.04,1.11,-2,-11,6,0,1515,0,,,,,,,,,,,,,,,
2614134,1501038716672,,,,,,,,,0,1455,0,,,,,,,,,,,,,,,
2614144,1501038716682,,,,,,,,,0,1410,0,36.113655,-115.145653,0.0,5.526,2028.1,9,3,1.8,0,0.0,-1,0.0,0.0,0.0,0
2614154,1501038716692,,,,,,,,,0,1275,0,,,,,,,,,,,,,,,
2614164,1501038716702,3.27,,0.37,-0.0,1.1,-1,-15,6,0,1440,0,,,,,,,,,,,,,,,
2614174,1501038716712,,,,,,,,,0,1515,0,,,,,,,,,,,,,,,
2614184,1501038716722,,,,,,,,,0,1470,0,,,,,,,,,,,,,,,
2614194,1501038716732,,,,,,,,,0,1395,0,,,,,,,,,,,,,,,
2614204,1501038716742,3.19,,0.45,-0.0,1.14,1,-18,7,0,1335,0,,,,,,,,,,,,,,,
2614214,1501038716752,,,,,,,,,0,1335,0,,,,,,,,,,,,,,,
2614224,1501038716762,,,,,,,,,0,1260,0,,,,,,,,,,,,,,,
2614234,1501038716772,,,,,,,,,0,1200,0,,,,,,,,,,,,,,,
2614244,1501038716782,3.21,,0.46,0.0,1.08,2,-19,7,0,1065,0,36.113655,-115.145653,0.0,5.526,2028.1,9,3,1.8,0,0.0,-1,0.0,0.0,0.0,0
2614254,1501038716792,,,,,,,,,0,1230,0,,,,,,,,,,,,,,,
2614264,1501038716802,,,,,,,,,0,1350,0,,,,,,,,,,,,,,,
2614274,1501038716812,,,,,,,,,0,1350,0,,,,,,,,,,,,,,,
2614284,1501038716822,3.17,,0.43,-0.01,1.01,1,-15,7,0,1320,0,,,,,,,,,,,,,,,
2614294,1501038716832,,,,,,,,,0,1290,0,,,,,,,,,,,,,,,
2614304,1501038716842,,,,,,,,,0,1260,0,,,,,,,,,,,,,,,
2614314,1501038716852,,,,,,,,,0,1230,150,,,,,,,,,,,,,,,
2614324,1501038716862,3.22,,0.38,0.02,0.91,1,-10,6,0,1230,150,,,,,,,,,,,,,,,
2614334,1501038716872,,,,,,,,,0,1200,150,,,,,,,,,,,,,,,
2614344,1501038716882,,,,,,,,,0,1095,150,36.113655,-115.145653,0.0,5.526,2028.1,9,3,1.8,0,0.0,-1,0.0,0.0,0.0,0
2614354,1501038716892,,,,,,,,,0,1305,150,,,,,,,,,,,,,,,
2614364,1501038716902,3.23,,0.34,0.03,0.86,0,-10,7,0,1425,150,,,,,,,,,,,,,,,
2614374,1501038716912,,,,,,,,,0,1410,150,,,,,,,,,,,,,,,
2614384,1501038716922,,,,,,,,,0,1395,150,,,,,,,,,,,,,,,
2614394,1501038716932,,,,,,,,,0,1380,150,,,,,,,,,,,,,,,
2614404,1501038716942,3.21,,0.29,0.01,0.82,0,-6,5,0,1365,150,,,,,,,,,,,,,,,
2614414,1501038716952,,,,,,,,,0,1335,150,,,,,,,,,,,,,,,
2614424,1501038716962,,,,,,,,,0,1245,150,,,,,,,,,,,,,,,
2614434,1501038716972,,,,,,,,,0,1500,150,,,,,,,,,,,,,,,
2614444,1501038716982,3.18,,0.27,0.02,0.95,0,0,4,0,1620,150,36.113655,-115.145653,0.0,5.526,2028.1,9,3,1.8,0,0.0,-1,0.0,0.0,0.0,0
2614454,1501038716992,,,,,,,,,0,1620,10000000,,,,,,,,,,,,,,,
2614464,1501038716994,,,,,,,,,0,1590,0,,,,,,,,,,,,,,,
2614474,1501038717004,,,,,,,,,0,1590,0,,,,,,,,,,,,,,,
2614484,1501038717014,3.17,,0.31,0.03,0.98,0,1,5,0,1560,0,,,,,,,,,,,,,,,
2614494,1501038717024,,,,,,,,,0,1530,0,,,,,,,,,,,,,,,
2614504,1501038717034,,,,,,,,,0,1455,440,,,,,,,,,,,,,,,
2614514,1501038717044,,,,,,,,,0,1710,440,,,,,,,,,,,,,,,
2614524,1501038717054,3.21,,0.37,-0.01,1.01,1,2,4,0,1800,440,,,,,,,,,,,,,,,
2614534,1501038717064,,,,,,,,,0,1770,440,,,,,,,,,,,,,,,
2614544,1501038717074,,,,,,,,,0,1770,440,36.113655,-115.145653,1.15,5.526,2042.5,9,3,1.8,0,0.0,-1,0.0,0.0,0.0,0
2614554,1501038717084,,,,,,,,,0,1740,440,,,,,,,,,,,,,,,
2614564,1501038717100,3.23,,0.38,-0.06,0.96,1,2,3,0,1725,440,,,,,,,,,,,,,,,
2614574,1501038717110,,,,,,,,,0,1635,440,,,,,,,,,,,,,,,
2614584,1501038717120,,,,,,,,,0,1950,440,,,,,,,,,,,,,,,
2614594,1501038717130,,,,,,,,,0,1950,440,,,,,,,,,,,,,,,
2614604,1501038717140,3.2,,0.38,-0.05,0.94,-0,-4,3,0,1920,440,,,,,,,,,,,,,,,
2614614,1501038717150,,,,,,,,,0,1920,440,,,,,,,,,,,,,,,
2614624,1501038717160,,,,,,,,,0,1860,0,,,,,,,,,,,,,,,
2614634,1501038717170,,,,,,,,,0,1800,0,,,,,,,,,,,,,,,
2614644,1501038717180,3.18,,0.3,0.01,0.89,0,-6,6,0,2010,0,36.113655,-115.145653,1.57,5.526,2042.5,9,3,1.8,0,0.0,-1,0.0,0.0,0.0,0
2614654,1501038717192,,,,,,,,,0,2070,160,,,,,,,,,,,,,,,
2614664,1501038717202,,,,,,,,,0,2040,160,,,,,,,,,,,,,,,
2614674,1501038717212,,,,,,,,,0,2010,160,,,,,,,,,,,,,,,
2614684,1501038717222,3.22,,0.3,0.03,0.88,-1,-6,6,0,1980,160,,,,,,,,,,,,,,,
2614694,1501038717232,,,,,,,,,0,1905,160,,,,,,,,,,,,,,,
2614704,1501038717242,,,,,,,,,0,2160,160,,,,,,,,,,,,,,,
2614714,1501038717252,,,,,,,,,0,2160,160,,,,,,,,,,,,,,,
2614724,1501038717262,3.22,,0.27,0.0,0.78,-1,-9,6,0,2115,160,,,,,,,,,,,,,,,
2614734,1501038717272,,,,,,,,,0,2085,160,,,,,,,,,,,,,,,
2614744,1501038717282,,,,,,,,,0,2055,160,36.113655,-115.145668,2.66,5.526,2042.4,9,3,1.8,0,0.0,-1,0.0,0.0,0.0,0
2614754,1501038717292,,,,,,,,,0,2175,160,,,,,,,,,,,,,,,
2614764,1501038717299,3.22,,0.27,0.06,0.74,-2,-7,5,0,2250,310,,,,,,,,,,,,,,,
2614774,1501038717309,,,,,,,,,0,2205,310,,,,,,,,,,,,,,,
2614784,1501038717319,,,,,,,,,0,2190,310,,,,,,,,,,,,,,,
2614794,1501038717329,,,,,,,,,0,2145,310,,,,,,,,,,,,,,,
2614804,1501038717339,3.25,,0.22,0.08,0.86,-1,-8,3,0,2055,310,,,,,,,,,,,,,,,
2614814,1501038717349,,,,,,,,,0,2325,310,,,,,,,,,,,,,,,
2614824,1501038717359,,,,,,,,,0,2310,310,,,,,,,,,,,,,,,
2614834,1501038717369,,,,,,,,,0,2265,310,,,,,,,,,,,,,,,
2614844,1501038717379,3.2,,0.34,0.04,1.0,1,-8,2,0,2250,310,36.113655,-115.145668,3.85,5.526,2042.4,9,3,1.8,0,0.0,-1,0.0,0.0,0.0,0
2614854,1501038717391,,,,,,,,,0,2160,310,,,,,,,,,,,,,,,
2614864,1501038717401,,,,,,,,,0,2355,310,,,,,,,,,,,,,,,
2614874,1501038717411,,,,,,,,,0,2385,470,,,,,,,,,,,,,,,
2614884,1501038717421,3.21,,0.33,0.04,0.89,-0,-11,4,0,2385,470,,,,,,,,,,,,,,,
2614894,1501038717431,,,,,,,,,0,2340,470,,,,,,,,,,,,,,,
2614904,1501038717441,,,,,,,,,0,2310,470,,,,,,,,,,,,,,,
2614914,1501038717451,,,,,,,,,0,2430,470,,,,,,,,,,,,,,,
2614924,1501038717461,3.16,,0.36,0.07,0.99,-1,-6,3,0,2475,470,,,,,,,,,,,,,,,
2614934,1501038717471,,,,,,,,,0,2445,470,,,,,,,,,,,,,,,
2614944,1501038717481,,,,,,,,,0,2415,470,36.113655,-115.145668,4.79,5.526,2042.4,9,3,1.8,0,0.0,-1,0.0,0.0,0.0,0
2614954,1501038717491,,,,,,,,,0,2310,470,,,,,,,,,,,,,,,
2614964,1501038717499,3.17,,0.34,0.08,0.95,-1,-11,5,0,2475,1170,,,,,,,,,,,,,,,
2614974,1501038717509,,,,,,,,,0,2535,1170,,,,,,,,,,,,,,,
2614984,1501038717519,,,,,,,,,0,2490,1170,,,,,,,,,,,,,,,
2614994,1501038717529,,,,,,,,,0,2460,1170,,,,,,,,,,,,,,,
2615004,1501038717539,3.28,,0.3,0.11,0.93,-2,-4,4,0,2370,1170,,,,,,,,,,,,,,,
2615014,1501038717549,,,,,,,,,0,2595,1170,,,,,,,,,,,,,,,
2615024,1501038717559,,,,,,,,,0,2580,1170,,,,,,,,,,,,,,,
2615034,1501038717569,,,,,,,,,0,2535,1170,,,,,,,,,,,,,,,
2615044,1501038717579,3.18,4.53,0.42,0.04,1.06,-0,-5,2,0,2490,1170,36.113655,-115.145668,5.59,5.526,2042.4,9,3,1.8,0,0.0,-1,0.0,0.0,0.0,0
2615054,1501038717591,,,,,,,,,0,2430,11270,,,,,,,,,,,,,,,
2615064,1501038717601,,,,,,,,,0,2655,11270,,,,,,,,,,,,,,,
2615074,1501038717611,,,,,,,,,0,2580,11270,,,,,,,,,,,,,,,
2615084,1501038717621,3.21,,0.36,0.06,0.86,-0,-12,4,0,2565,11270,,,,,,,,,,,,,,,
2615094,1501038717631,,,,,,,,,0,2535,11270,,,,,,,,,,,,,,,
2615104,1501038717641,,,,,,,,,0,2610,11270,,,,,,,,,,,,,,,
2615114,1501038717651,,,,,,,,,0,2670,11270,,,,,,,,,,,,,,,
2615124,1501038717661,3.11,,0.37,-0.0,0.73,-0,-8,2,0,2625,11270,,,,,,,,,,,,,,,
2615134,1501038717671,,,,,,,,,0,2595,120,,,,,,,,,,,,,,,
2615144,1501038717681,,,,,,,,,0,2505,120,36.113655,-115.145668,6.36,5.527,2042.4,9,3,1.8,0,0.0,-1,0.0,0.0,0.0,0
2615154,1501038717691,,,,,,,,,0,2730,120,,,,,,,,,,,,,,,
2615164,1501038717701,3.23,,0.47,-0.0,0.95,-0,-3,4,0,2670,120,,,,,,,,,,,,,,,
2615174,1501038717711,,,,,,,,,0,2655,120,,,,,,,,,,,,,,,
2615184,1501038717721,,,,,,,,,0,2595,120,,,,,,,,,,,,,,,
2615194,1501038717731,,,,,,,,,0,2670,120,,,,,,,,,,,,,,,
2615204,1501038717741,3.27,,0.5,0.05,1.05,-2,-4,6,0,2715,120,,,,,,,,,,,,,,,
2615214,1501038717751,,,,,,,,,0,2685,130,,,,,,,,,,,,,,,
2615224,1501038717761,,,,,,,,,0,2670,130,,,,,,,,,,,,,,,
2615234,1501038717771,,,,,,,,,0,2565,130,,,,,,,,,,,,,,,
2615244,1501038717781,3.31,,0.45,0.11,0.93,-2,-8,7,0,2775,130,36.113655,-115.145676,7.02,5.527,2042.3,9,3,1.8,0,0.0,-1,0.0,0.0,0.0,0
2615254,1501038717791,,,,,,,,,0,2715,130,,,,,,,,,,,,,,,
2615264,1501038717801,,,,,,,,,0,2700,130,,,,,,,,,,,,,,,
2615274,1501038717811,,,,,,,,,0,2640,130,,,,,,,,,,,,,,,
2615284,1501038717821,3.22,,0.4,0.12,0.78,-1,-9,6,0,2715,140,,,,,,,,,,,,,,,
2615294,1501038717831,,,,,,,,,0,2745,140,,,,,,,,,,,,,,,
2615304,1501038717841,,,,,,,,,0,2715,140,,,,,,,,,,,,,,,
2615314,1501038717851,,,,,,,,,0,2655,140,,,,,,,,,,,,,,,
2615324,1501038717861,3.24,,0.4,0.09,0.9,-2,-0,9,0,2610,140,,,,,,,,,,,,,,,
2615334,1501038717871,,,,,,,,,0,2805,140,,,,,,,,,,,,,,,
2615344,1501038717881,,,,,,,,,0,2745,140,36.113655,-115.145676,7.67,5.527,2042.4,9,3,1.8,0,0.0,-1,0.0,0.0,0.0,0
2615354,1501038717891,,,,,,,,,0,2715,140,,,,,,,,,,,,,,,
2615364,1501038717901,3.22,,0.43,0.03,1.04,-2,6,7,0,2610,140,,,,,,,,,,,,,,,
2615374,1501038717911,,,,,,,,,0,2745,140,,,,,,,,,,,,,,,
2615384,1501038717921,,,,,,,,,0,2775,140,,,,,,,,,,,,,,,
2615394,1501038717931,,,,,,,,,0,2760,140,,,,,,,,,,,,,,,
2615404,1501038717941,3.14,,0.46,0.02,1.09,-2,4,9,0,2670,140,,,,,,,,,,,,,,,
2615414,1501038717951,,,,,,,,,0,2760,150,,,,,,,,,,,,,,,
2615424,1501038717961,,,,,,,,,0,2775,150,,,,,,,,,,,,,,,
2615434,1501038717971,,,,,,,,,0,2775,150,,,,,,,,,,,,,,,
2615444,1501038717981,3.2,,0.43,0.03,0.96,-2,-3,9,0,2715,150,36.113655,-115.145676,8.4,5.527,2042.4,9,3,1.8,0,0.0,-1,0.0,0.0,0.0,0
2615454,1501038717991,,,,,,,,,0,2640,150,,,,,,,,,,,,,,,
2615464,1501038717995,,,,,,,,,0,2820,150,,,,,,,,,,,,,,,
2615474,1501038718005,,,,,,,,,0,2775,160,,,,,,,,,,,,,,,
2615484,1501038718015,3.24,,0.36,0.14,0.78,-2,-8,10,0,2715,160,,,,,,,,,,,,,,,
2615494,1501038718025,,,,,,,,,0,2685,160,,,,,,,,,,,,,,,
2615504,1501038718035,,,,,,,,,0,2775,160,,,,,,,,,,,,,,,
2615514,1501038718045,,,,,,,,,0,2760,160,,,,,,,,,,,,,,,
2615524,1501038718055,3.15,,0.41,0.05,0.73,-3,-11,7,0,2760,160,,,,,,,,,,,,,,,
2615534,1501038718065,,,,,,,,,0,2670,160,,,,,,,,,,,,,,,
2615544,1501038718075,,,,,,,,,0,2760,160,36.113655,-115.145691,9.0,5.527,2042.5,9,3,1.8,0,0.0,-1,0.0,0.0,0.0,0
2615554,1501038718091,,,,,,,,,0,2820,160,,,,,,,,,,,,,,,
2615564,1501038718101,3.15,,0.39,-0.12,0.77,-1,-2,6,0,2760,160,,,,,,,,,,,,,,,
2615574,1501038718111,,,,,,,,,0,2700,160,,,,,,,,,,,,,,,
2615584,1501038718121,,,,,,,,,0,2640,160,,,,,,,,,,,,,,,
2615594,1501038718131,,,,,,,,,0,2790,170,,,,,,,,,,,,,,,
2615604,1501038718141,3.15,,0.44,-0.04,0.98,-1,3,3,0,2760,170,,,,,,,,,,,,,,,
2615614,1501038718151,,,,,,,,,0,2745,170,,,,,,,,,,,,,,,
2615624,1501038718161,,,,,,,,,0,2670,170,,,,,,,,,,,,,,,
2615634,1501038718171,,,,,,,,,0,2760,170,,,,,,,,,,,,,,,
2615644,1501038718181,3.16,,0.44,0.03,1.15,-2,0,4,0,2790,170,36.113655,-115.145691,9.74,5.528,2042.4,9,3,1.8,0,0.0,-1,0.0,0.0,0.0,0
2615654,1501038718193,,,,,,,,,0,2760,170,,,,,,,,,,,,,,,
2615664,1501038718203,,,,,,,,,0,2700,170,,,,,,,,,,,,,,,
2615674,1501038718213,,,,,,,,,0,2640,170,,,,,,,,,,,,,,,
2615684,1501038718223,3.23,,0.42,0.03,0.98,-2,-8,2,0,2790,170,,,,,,,,,,,,,,,
2615694,1501038718233,,,,,,,,,0,2760,170,,,,,,,,,,,,,,,
2615704,1501038718243,,,,,,,,,0,2700,170,,,,,,,,,,,,,,,
2615714,1501038718253,,,,,,,,,0,2625,170,,,,,,,,,,,,,,,
2615724,1501038718263,3.21,,0.34,0.07,0.78,-3,-12,5,0,2775,170,,,,,,,,,,,,,,,
2615734,1501038718273,,,,,,,,,0,2790,170,,,,,,,,,,,,,,,
2615744,1501038718283,,,,,,,,,0,2760,170,36.113655,-115.145691,10.37,5.528,2042.5,9,3,1.8,0,0.0,-1,0.0,0.0,0.0,0
2615754,1501038718292,,,,,,,,,0,2685,170,,,,,,,,,,,,,,,
2615764,1501038718302,3.19,,0.32,-0.07,0.65,-2,-11,1,0,2790,180,,,,,,,,,,,,,,,
2615774,1501038718312,,,,,,,,,0,2790,180,,,,,,,,,,,,,,,
2615784,1501038718322,,,,,,,,,0,2760,180,,,,,,,,,,,,,,,
2615794,1501038718332,,,,,,,,,0,2700,180,,,,,,,,,,,,,,,
2615804,1501038718342,3.19,,0.36,-0.08,0.77,-3,-2,4,0,2640,180,,,,,,,,,,,,,,,
2615814,1501038718352,,,,,,,,,0,2820,190,,,,,,,,,,,,,,,
2615824,1501038718362,,,,,,,,,0,2760,190,,,,,,,,,,,,,,,
2615834,1501038718372,,,,,,,,,0,2715,190,,,,,,,,,,,,,,,
2615844,1501038718382,3.2,,0.41,-0.13,1.0,-4,1,-0,0,2700,190,36.113655,-115.145706,10.83,5.528,2042.5,9,3,1.8,0,0.0,-1,0.0,0.0,0.0,0
2615854,1501038718392,,,,,,,,,0,2775,190,,,,,,,,,,,,,,,
2615864,1501038718402,,,,,,,,,0,2775,190,,,,,,,,,,,,,,,
2615874,1501038718412,,,,,,,,,0,2760,190,,,,,,,,,,,,,,,
2615884,1501038718422,3.2,,0.4,-0.08,1.05,-4,-1,4,0,2670,190,,,,,,,,,,,,,,,
2615894,1501038718432,,,,,,,,,0,2625,190,,,,,,,,,,,,,,,
2615904,1501038718442,,,,,,,,,0,2805,190,,,,,,,,,,,,,,,
2615914,1501038718452,,,,,,,,,0,2760,190,,,,,,,,,,,,,,,
2615924,1501038718462,3.21,,0.34,-0.03,0.86,-4,-8,4,0,2700,190,,,,,,,,,,,,,,,
2615934,1501038718472,,,,,,,,,0,2640,190,,,,,,,,,,,,,,,
2615944,1501038718482,,,,,,,,,0,2820,190,36.113655,-115.145706,11.48,5.529,2042.4,9,3,1.8,0,0.0,-1,0.0,0.0,0.0,0
2615954,1501038718492,,,,,,,,,0,2760,190,,,,,,,,,,,,,,,
2615964,1501038718502,3.19,,0.26,-0.01,0.61,-4,-14,4,0,2775,200,,,,,,,,,,,,,,,
2615974,1501038718512,,,,,,,,,0,2670,200,,,,,,,,,,,,,,,
2615984,1501038718522,,,,,,,,,0,2790,200,,,,,,,,,,,,,,,
2615994,1501038718532,,,,,,,,,0,2775,200,,,,,,,,,,,,,,,
2616004,1501038718542,3.14,,0.33,-0.15,0.63,-3,-9,1,0,2760,200,,,,,,,,,,,,,,,
2616014,1501038718552,,,,,,,,,0,2715,200,,,,,,,,,,,,,,,
2616024,1501038718562,,,,,,,,,0,2640,200,,,,,,,,,,,,,,,
2616034,1501038718572,,,,,,,,,0,2835,200,,,,,,,,,,,,,,,
2616044,1501038718582,3.19,4.5,0.3,-0.06,0.89,-3,2,3,0,2790,200,36.113655,-115.145714,12.13,5.529,2042.4,9,3,1.8,0,0.0,-1,0.0,0.0,0.0,0
2616054,1501038718592,,,,,,,,,0,2715,210,,,,,,,,,,,,,,,
2616064,1501038718602,,,,,,,,,0,2640,210,,,,,,,,,,,,,,,
2616074,1501038718612,,,,,,,,,0,2835,210,,,,,,,,,,,,,,,
2616084,1501038718622,3.23,,0.35,-0.04,1.1,-4,7,-0,0,2805,210,,,,,,,,,,,,,,,
2616094,1501038718632,,,,,,,,,0,2775,210,,,,,,,,,,,,,,,
2616104,1501038718642,,,,,,,,,0,2700,210,,,,,,,,,,,,,,,
2616114,1501038718652,,,,,,,,,0,2805,210,,,,,,,,,,,,,,,
2616124,1501038718662,3.22,,0.35,-0.04,1.1,-3,4,2,0,2805,210,,,,,,,,,,,,,,,
2616134,1501038718672,,,,,,,,,0,2775,210,,,,,,,,,,,,,,,
2616144,1501038718682,,,,,,,,,0,2730,210,36.113655,-115.145714,12.43,5.529,2042.1,9,3,1.8,0,0.0,-1,0.0,0.0,0.0,0
2616154,1501038718692,,,,,,,,,0,2655,210,,,,,,,,,,,,,,,
2616164,1501038718702,3.22,,0.31,-0.0,0.92,-4,-3,2,0,2850,210,,,,,,,,,,,,,,,
2616174,1501038718712,,,,,,,,,0,2790,210,,,,,,,,,,,,,,,
2616184,1501038718722,,,,,,,,,0,2730,210,,,,,,,,,,,,,,,
2616194,1501038718732,,,,,,,,,0,2655,210,,,,,,,,,,,,,,,
2616204,1501038718742,3.2,,0.24,-0.05,0.7,-3,-9,4,0,2820,210,,,,,,,,,,,,,,,
2616214,1501038718752,,,,,,,,,0,2820,210,,,,,,,,,,,,,,,
2616224,1501038718762,,,,,,,,,0,2790,210,,,,,,,,,,,,,,,
2616234,1501038718772,,,,,,,,,0,2715,210,,,,,,,,,,,,,,,
2616244,1501038718782,3.2,,0.3,-0.07,0.64,-5,-8,4,0,2805,220,36.113655,-115.145729,13.03,5.53,2041.9,9,3,1.8,0,0.0,-1,0.0,0.0,0.0,0
2616254,1501038718792,,,,,,,,,0,2790,220,,,,,,,,,,,,,,,
2616264,1501038718802,,,,,,,,,0,2790,220,,,,,,,,,,,,,,,
2616274,1501038718812,,,,,,,,,0,2730,220,,,,,,,,,,,,,,,
2616284,1501038718822,3.17,,0.28,-0.12,0.77,-4,1,5,0,2655,220,,,,,,,,,,,,,,,
2616294,1501038718832,,,,,,,,,0,2820,220,,,,,,,,,,,,,,,
2616304,1501038718842,,,,,,,,,0,2790,220,,,,,,,,,,,,,,,
2616314,1501038718852,,,,,,,,,0,2730,220,,,,,,,,,,,,,,,
2616324,1501038718862,3.2,,0.3,-0.07,1.0,-3,7,-0,0,2655,230,,,,,,,,,,,,,,,
2616334,1501038718872,,,,,,,,,0,2850,230,,,,,,,,,,,,,,,
2616344,1501038718882,,,,,,,,,0,2820,230,36.113655,-115.145729,13.47,5.53,2041.8,9,3,1.8,0,0.0,-1,0.0,0.0,0.0,0
2616354,1501038718892,,,,,,,,,0,2805,230,,,,,,,,,,,,,,,
2616364,1501038718902,3.1,,0.33,-0.06,1.16,-4,9,0,0,2730,230,,,,,,,,,,,,,,,
2616374,1501038718912,,,,,,,,,0,2820,230,,,,,,,,,,,,,,,
2616384,1501038718922,,,,,,,,,0,2820,230,,,,,,,,,,,,,,,
2616394,1501038718932,,,,,,,,,0,2790,230,,,,,,,,,,,,,,,
2616404,1501038718942,3.17,,0.3,-0.03,0.9,-4,3,1,0,2730,230,,,,,,,,,,,,,,,
2616414,1501038718952,,,,,,,,,0,2655,230,,,,,,,,,,,,,,,
2616424,1501038718962,,,,,,,,,0,2835,230,,,,,,,,,,,,,,,
2616434,1501038718972,,,,,,,,,0,2790,230,,,,,,,,,,,,,,,
2616444,1501038718982,3.18,,0.2,-0.02,0.71,-4,-8,3,0,2730,230,36.113655,-115.145744,13.8,5.53,2041.6,9,3,1.8,0,0.0,-1,0.0,0.0,0.0,0
2616454,1501038718992,,,,,,,,,0,2640,230,,,,,,,,,,,,,,,
2616464,1501038718996,,,,,,,,,0,2820,230,,,,,,,,,,,,,,,
2616474,1501038719006,,,,,,,,,0,2820,230,,,,,,,,,,,,,,,
2616484,1501038719016,3.22,,0.25,-0.09,0.59,-5,-11,2,0,2790,230,,,,,,,,,,,,,,,
2616494,1501038719026,,,,,,,,,0,2700,240,,,,,,,,,,,,,,,
2616504,1501038719036,,,,,,,,,0,2805,240,,,,,,,,,,,,,,,
2616514,1501038719046,,,,,,,,,0,2805,240,,,,,,,,,,,,,,,
2616524,1501038719056,3.19,,0.25,-0.14,0.56,-4,-10,1,0,2760,240,,,,,,,,,,,,,,,
2616534,1501038719066,,,,,,,,,0,2730,240,,,,,,,,,,,,,,,
2616544,1501038719076,,,,,,,,,0,2625,240,36.113655,-115.145744,14.36,5.531,2041.6,9,3,1.8,0,0.0,-1,0.0,0.0,0.0,0
2616554,1501038719086,,,,,,,,,0,2805,240,,,,,,,,,,,,,,,
2616564,1501038719100,3.16,,0.22,-0.09,0.78,-3,1,2,0,2760,240,,,,,,,,,,,,,,,
2616574,1501038719110,,,,,,,,,0,2730,240,,,,,,,,,,,,,,,
2616584,1501038719120,,,,,,,,,0,2625,240,,,,,,,,,,,,,,,
2616594,1501038719130,,,,,,,,,0,2805,240,,,,,,,,,,,,,,,
2616604,1501038719140,3.22,,0.26,-0.03,0.97,-4,6,3,0,2805,240,,,,,,,,,,,,,,,
2616614,1501038719150,,,,,,,,,0,2790,250,,,,,,,,,,,,,,,
2616624,1501038719160,,,,,,,,,0,2685,250,,,,,,,,,,,,,,,
2616634,1501038719170,,,,,,,,,0,2775,250,,,,,,,,,,,,,,,
2616644,1501038719180,3.24,,0.29,-0.03,1.0,-4,2,4,0,2790,250,36.113655,-115.145752,14.72,5.531,2041.5,9,3,1.8,0,0.0,-1,0.0,0.0,0.0,0
2616654,1501038719192,,,,,,,,,0,2760,250,,,,,,,,,,,,,,,
2616664,1501038719202,,,,,,,,,0,2715,250,,,,,,,,,,,,,,,
2616674,1501038719212,,,,,,,,,0,2610,250,,,,,,,,,,,,,,,
2616684,1501038719222,3.25,,0.24,-0.02,0.81,-5,-7,5,0,2805,250,,,,,,,,,,,,,,,
2616694,1501038719232,,,,,,,,,0,2745,250,,,,,,,,,,,,,,,
2616704,1501038719242,,,,,,,,,0,2715,250,,,,,,,,,,,,,,,
2616714,1501038719252,,,,,,,,,0,2655,250,,,,,,,,,,,,,,,
2616724,1501038719262,3.18,,0.21,-0.07,0.62,-5,-10,6,0,2760,250,,,,,,,,,,,,,,,
2616734,1501038719272,,,,,,,,,0,2775,250,,,,,,,,,,,,,,,
2616744,1501038719282,,,,,,,,,0,2730,250,36.113655,-115.145767,15.26,5.532,2041.4,9,3,1.8,0,0.0,-1,0.0,0.0,0.0,0
2616754,1501038719291,,,,,,,,,0,2655,250,,,,,,,,,,,,,,,
2616764,1501038719301,3.18,,0.23,-0.08,0.64,-6,-5,6,0,2610,250,,,,,,,,,,,,,,,
2616774,1501038719311,,,,,,,,,0,2775,250,,,,,,,,,,,,,,,
2616784,1501038719321,,,,,,,,,0,2730,250,,,,,,,,,,,,,,,
2616794,1501038719331,,,,,,,,,0,2700,250,,,,,,,,,,,,,,,
2616804,1501038719341,3.19,,0.22,-0.13,0.9,-5,3,6,0,2610,250,,,,,,,,,,,,,,,
2616814,1501038719351,,,,,,,,,0,2790,260,,,,,,,,,,,,,,,
2616824,1501038719361,,,,,,,,,0,2775,260,,,,,,,,,,,,,,,
2616834,1501038719371,,,,,,,,,0,2760,260,,,,,,,,,,,,,,,
2616844,1501038719381,3.2,,0.27,-0.08,0.96,-5,5,8,0,2670,260,36.113655,-115.145767,15.85,5.532,2041.4,9,3,1.8,0,0.0,-1,0.0,0.0,0.0,0
2616854,1501038719391,,,,,,,,,0,2760,260,,,,,,,,,,,,,,,
2616864,1501038719401,,,,,,,,,0,2760,260,,,,,,,,,,,,,,,
2616874,1501038719411,,,,,,,,,0,2745,260,,,,,,,,,,,,,,,
2616884,1501038719421,3.24,,0.26,-0.02,0.84,-5,0,10,0,2700,260,,,,,,,,,,,,,,,
2616894,1501038719431,,,,,,,,,0,2595,260,,,,,,,,,,,,,,,
2616904,1501038719441,,,,,,,,,0,2805,260,,,,,,,,,,,,,,,
2616914,1501038719451,,,,,,,,,0,2730,260,,,,,,,,,,,,,,,
2616924,1501038719461,3.21,,0.21,0.01,0.75,-4,-9,9,0,2715,260,,,,,,,,,,,,,,,
2616934,1501038719471,,,,,,,,,0,2655,260,,,,,,,,,,,,,,,
2616944,1501038719481,,,,,,,,,0,2745,260,36.113655,-115.145782,16.23,5.532,2041.4,9,3,1.8,0,0.0,-1,0.0,0.0,0.0,0
2616954,1501038719491,,,,,,,,,0,2760,260,,,,,,,,,,,,,,,
2616964,1501038719501,3.25,,0.25,-0.05,0.61,-6,-9,9,0,2730,260,,,,,,,,,,,,,,,
2616974,1501038719511,,,,,,,,,0,2655,260,,,,,,,,,,,,,,,
2616984,1501038719521,,,,,,,,,0,2610,260,,,,,,,,,,,,,,,
2616994,1501038719531,,,,,,,,,0,2820,260,,,,,,,,,,,,,,,
2617004,1501038719541,3.21,,0.2,-0.07,0.86,-4,-1,8,0,2745,260,,,,,,,,,,,,,,,
2617014,1501038719551,,,,,,,,,0,2715,260,,,,,,,,,,,,,,,
2617024,1501038719561,,,,,,,,,0,2610,260,,,,,,,,,,,,,,,
2617034,1501038719571,,,,,,,,,0,2835,270,,,,,,,,,,,,,,,
2617044,1501038719581,3.22,4.51,0.28,-0.08,1.08,-4,4,2,0,2760,270,36.113655,-115.145782,16.38,5.533,2041.3,9,3,1.8,0,0.0,-1,0.0,0.0,0.0,0
2617054,1501038719591,,,,,,,,,0,2745,270,,,,,,,,,,,,,,,
2617064,1501038719601,,,,,,,,,0,2670,270,,,,,,,,,,,,,,,
2617074,1501038719611,,,,,,,,,0,2760,270,,,,,,,,,,,,,,,
2617084,1501038719621,3.27,,0.29,-0.09,1.05,-3,2,6,0,2775,270,,,,,,,,,,,,,,,
2617094,1501038719631,,,,,,,,,0,2745,270,,,,,,,,,,,,,,,
2617104,1501038719641,,,,,,,,,0,2730,270,,,,,,,,,,,,,,,
2617114,1501038719651,,,,,,,,,0,2625,270,,,,,,,,,,,,,,,
2617124,1501038719661,3.27,,0.23,-0.04,0.9,-5,-5,7,0,2805,270,,,,,,,,,,,,,,,
2617134,1501038719671,,,,,,,,,0,2760,270,,,,,,,,,,,,,,,
2617144,1501038719681,,,,,,,,,0,2730,270,36.113651,-115.14579,16.85,5.533,2041.3,9,3,1.8,0,0.0,-1,0.0,0.0,0.0,0
2617154,1501038719691,,,,,,,,,0,2685,270,,,,,,,,,,,,,,,
2617164,1501038719701,3.23,,0.17,-0.08,0.69,-4,-10,8,0,2790,270,,,,,,,,,,,,,,,
2617174,1501038719711,,,,,,,,,0,2790,270,,,,,,,,,,,,,,,
2617184,1501038719721,,,,,,,,,0,2760,280,,,,,,,,,,,,,,,
2617194,1501038719731,,,,,,,,,0,2670,280,,,,,,,,,,,,,,,
2617204,1501038719741,3.2,,0.17,-0.06,0.68,-2,-6,5,0,2775,280,,,,,,,,,,,,,,,
2617214,1501038719751,,,,,,,,,0,2805,280,,,,,,,,,,,,,,,
2617224,1501038719761,,,,,,,,,0,2760,280,,,,,,,,,,,,,,,
2617234,1501038719771,,,,,,,,,0,2700,280,,,,,,,,,,,,,,,
2617244,1501038719781,3.23,,0.13,-0.04,0.91,-1,1,6,0,2625,280,36.113651,-115.145805,17.11,5.534,2041.2,9,3,1.8,0,0.0,-1,0.0,0.0,0.0,0
2617254,1501038719791,,,,,,,,,0,2805,280,,,,,,,,,,,,,,,
2617264,1501038719801,,,,,,,,,0,2760,280,,,,,,,,,,,,,,,
2617274,1501038719811,,,,,,,,,0,2775,280,,,,,,,,,,,,,,,
2617284,1501038719821,3.23,,0.19,-0.02,1.1,-2,5,3,0,2685,280,,,,,,,,,,,,,,,
2617294,1501038719831,,,,,,,,,0,2790,280,,,,,,,,,,,,,,,
2617304,1501038719841,,,,,,,,,0,2805,280,,,,,,,,,,,,,,,
2617314,1501038719851,,,,,,,,,0,2760,280,,,,,,,,,,,,,,,
2617324,1501038719861,3.18,,0.23,0.03,1.18,-2,3,5,0,2700,290,,,,,,,,,,,,,,,
2617334,1501038719871,,,,,,,,,0,2625,290,,,,,,,,,,,,,,,
2617344,1501038719881,,,,,,,,,0,2820,290,36.113651,-115.145805,17.31,5.534,2041.2,9,3,1.8,0,0.0,-1,0.0,0.0,0.0,0
2617354,1501038719893,,,,,,,,,0,2760,280,,,,,,,,,,,,,,,
2617364,1501038719903,3.22,,0.21,0.03,0.99,-1,-3,6,0,2730,280,,,,,,,,,,,,,,,
2617374,1501038719913,,,,,,,,,0,2640,280,,,,,,,,,,,,,,,
2617384,1501038719923,,,,,,,,,0,2820,280,,,,,,,,,,,,,,,
2617394,1501038719933,,,,,,,,,0,2790,290,,,,,,,,,,,,,,,
2617404,1501038719943,3.24,,0.17,0.07,0.76,-3,-12,6,0,2760,290,,,,,,,,,,,,,,,
2617414,1501038719953,,,,,,,,,0,2685,290,,,,,,,,,,,,,,,
2617424,1501038719963,,,,,,,,,0,2790,280,,,,,,,,,,,,,,,
2617434,1501038719973,,,,,,,,,0,2790,280,,,,,,,,,,,,,,,
2617444,1501038719983,3.19,,0.21,-0.01,0.66,-2,-9,6,0,2745,280,36.113651,-115.145821,17.68,5.535,2041.1,9,3,1.8,0,0.0,-1,0.0,0.0,0.0,0
2617454,1501038719993,,,,,,,,,0,2730,280,,,,,,,,,,,,,,,
2617464,1501038719995,,,,,,,,,0,2625,290,,,,,,,,,,,,,,,
2617474,1501038720005,,,,,,,,,0,2835,290,,,,,,,,,,,,,,,
2617484,1501038720015,3.13,,0.17,-0.08,0.91,-0,0,8,0,2775,290,,,,,,,,,,,,,,,
2617494,1501038720025,,,,,,,,,0,2730,290,,,,,,,,,,,,,,,
2617504,1501038720035,,,,,,,,,0,2640,290,,,,,,,,,,,,,,,
2617514,1501038720045,,,,,,,,,0,2790,290,,,,,,,,,,,,,,,
2617524,1501038720055,3.19,,0.21,-0.05,1.11,0,5,6,0,2790,290,,,,,,,,,,,,,,,
2617534,1501038720065,,,,,,,,,0,2775,290,,,,,,,,,,,,,,,
2617544,1501038720075,,,,,,,,,0,2685,290,36.113651,-115.145828,17.91,5.535,2041.2,9,3,1.8,0,0.0,-1,0.0,0.0,0.0,0
2617554,1501038720093,,,,,,,,,0,2790,290,,,,,,,,,,,,,,,
2617564,1501038720103,3.21,,0.22,-0.05,1.13,1,2,5,0,2805,290,,,,,,,,,,,,,,,
2617574,1501038720113,,,,,,,,,0,2760,290,,,,,,,,,,,,,,,
2617584,1501038720123,,,,,,,,,0,2730,290,,,,,,,,,,,,,,,
2617594,1501038720133,,,,,,,,,0,2625,290,,,,,,,,,,,,,,,
2617604,1501038720143,3.24,,0.19,-0.01,0.94,1,-4,5,0,2805,290,,,,,,,,,,,,,,,
2617614,1501038720153,,,,,,,,,0,2775,290,,,,,,,,,,,,,,,
2617624,1501038720163,,,,,,,,,0,2745,290,,,,,,,,,,,,,,,
2617634,1501038720173,,,,,,,,,0,2685,290,,,,,,,,,,,,,,,
2617644,1501038720183,3.23,,0.16,-0.05,0.78,1,-11,6,0,2805,290,36.113651,-115.145844,18.12,5.536,2041.2,9,3,1.8,0,0.0,-1,0.0,0.0,0.0,0
2617654,1501038720193,,,,,,,,,0,2835,290,,,,,,,,,,,,,,,
2617664,1501038720203,,,,,,,,,0,2805,300,,,,,,,,,,,,,,,
2617674,1501038720213,,,,,,,,,0,2715,300,,,,,,,,,,,,,,,
2617684,1501038720223,3.2,,0.17,-0.07,0.67,1,-10,4,0,2820,300,,,,,,,,,,,,,,,
2617694,1501038720233,,,,,,,,,0,2835,300,,,,,,,,,,,,,,,
2617704,1501038720243,,,,,,,,,0,2775,300,,,,,,,,,,,,,,,
2617714,1501038720253,,,,,,,,,0,2745,300,,,,,,,,,,,,,,,
2617724,1501038720263,3.23,,0.19,-0.06,0.73,1,-3,5,0,2640,300,,,,,,,,,,,,,,,
2617734,1501038720273,,,,,,,,,0,2835,300,,,,,,,,,,,,,,,
2617744,1501038720283,,,,,,,,,0,2790,300,36.113651,-115.145844,18.53,5.536,2041.1,9,3,1.8,0,0.0,-1,0.0,0.0,0.0,0
2617754,1501038720292,,,,,,,,,0,2745,300,,,,,,,,,,,,,,,
2617764,1501038720302,3.23,,0.27,-0.13,0.97,1,2,0,0,2685,300,,,,,,,,,,,,,,,
2617774,1501038720312,,,,,,,,,0,2805,300,,,,,,,,,,,,,,,
2617784,1501038720322,,,,,,,,,0,2805,300,,,,,,,,,,,,,,,
2617794,1501038720332,,,,,,,,,0,2790,300,,,,,,,,,,,,,,,
2617804,1501038720342,3.24,,0.23,-0.1,1.09,1,2,4,0,2715,300,,,,,,,,,,,,,,,
2617814,1501038720352,,,,,,,,,0,2805,300,,,,,,,,,,,,,,,
2617824,1501038720362,,,,,,,,,0,2805,300,,,,,,,,,,,,,,,
2617834,1501038720372,,,,,,,,,0,2775,300,,,,,,,,,,,,,,,
2617844,1501038720382,3.25,,0.19,-0.04,0.92,0,-4,4,0,2730,300,36.113651,-115.145859,18.79,5.537,2041.1,9,3,1.8,0,0.0,-1,0.0,0.0,0.0,0
2617854,1501038720392,,,,,,,,,0,2640,300,,,,,,,,,,,,,,,
2617864,1501038720402,,,,,,,,,0,2820,300,,,,,,,,,,,,,,,
2617874,1501038720412,,,,,,,,,0,2775,300,,,,,,,,,,,,,,,
2617884,1501038720422,3.22,,0.12,0.02,0.72,-0,-11,6,0,2745,300,,,,,,,,,,,,,,,
2617894,1501038720432,,,,,,,,,0,2700,310,,,,,,,,,,,,,,,
2617904,1501038720442,,,,,,,,,0,2820,310,,,,,,,,,,,,,,,
2617914,1501038720452,,,,,,,,,0,2820,310,,,,,,,,,,,,,,,
2617924,1501038720462,3.3,,0.18,-0.01,0.56,-0,-14,5,0,2775,310,,,,,,,,,,,,,,,
2617934,1501038720472,,,,,,,,,0,2700,310,,,,,,,,,,,,,,,
2617944,1501038720482,,,,,,,,,0,2790,310,36.113647,-115.145866,19.23,5.537,2041.1,9,3,1.8,0,0.0,-1,0.0,0.0,0.0,0
2617954,1501038720492,,,,,,,,,0,2805,310,,,,,,,,,,,,,,,
2617964,1501038720502,3.23,,0.16,-0.03,0.65,1,-7,5,0,2790,310,,,,,,,,,,,,,,,
2617974,1501038720512,,,,,,,,,0,2730,310,,,,,,,,,,,,,,,
2617984,1501038720522,,,,,,,,,0,2640,310,,,,,,,,,,,,,,,
2617994,1501038720532,,,,,,,,,0,2835,310,,,,,,,,,,,,,,,
2618004,1501038720542,3.25,,0.2,0.05,0.86,0,2,4,0,2790,310,,,,,,,,,,,,,,,
2618014,1501038720552,,,,,,,,,0,2745,310,,,,,,,,,,,,,,,
2618024,1501038720562,,,,,,,,,0,2700,310,,,,,,,,,,,,,,,
2618034,1501038720572,,,,,,,,,0,2805,310,,,,,,,,,,,,,,,
2618044,1501038720582,3.25,4.5,0.2,0.07,1.06,-0,8,6,0,2820,310,36.113647,-115.145882,19.51,5.538,2041.0,9,3,1.8,0,0.0,-1,0.0,0.0,0.0,0
2618054,1501038720592,,,,,,,,,0,2805,310,,,,,,,,,,,,,,,
2618064,1501038720602,,,,,,,,,0,2715,310,,,,,,,,,,,,,,,
2618074,1501038720612,,,,,,,,,0,2835,310,,,,,,,,,,,,,,,
2618084,1501038720622,3.26,,0.17,0.05,0.93,0,3,6,0,2835,320,,,,,,,,,,,,,,,
2618094,1501038720632,,,,,,,,,0,2805,320,,,,,,,,,,,,,,,
2618104,1501038720642,,,,,,,,,0,2760,320,,,,,,,,,,,,,,,
2618114,1501038720652,,,,,,,,,0,2655,320,,,,,,,,,,,,,,,
2618124,1501038720662,3.29,,0.13,0.06,0.76,-1,-4,7,0,2835,320,,,,,,,,,,,,,,,
2618134,1501038720672,,,,,,,,,0,2790,320,,,,,,,,,,,,,,,
2618144,1501038720682,,,,,,,,,0,2730,310,36.113647,-115.145882,19.67,5.538,2040.9,9,3,1.8,0,0.0,-1,0.0,0.0,0.0,0
2618154,1501038720692,,,,,,,,,0,2655,310,,,,,,,,,,,,,,,
2618164,1501038720702,3.18,,0.17,0.02,0.72,-2,-12,7,0,2820,310,,,,,,,,,,,,,,,
2618174,1501038720712,,,,,,,,,0,2835,320,,,,,,,,,,,,,,,
2618184,1501038720722,,,,,,,,,0,2775,320,,,,,,,,,,,,,,,
2618194,1501038720732,,,,,,,,,0,2730,320,,,,,,,,,,,,,,,
2618204,1501038720742,3.25,,0.18,-0.06,0.52,-1,-13,5,0,2820,310,,,,,,,,,,,,,,,
2618214,1501038720752,,,,,,,,,0,2835,310,,,,,,,,,,,,,,,
2618224,1501038720762,,,,,,,,,0,2790,310,,,,,,,,,,,,,,,
2618234,1501038720772,,,,,,,,,0,2775,320,,,,,,,,,,,,,,,
2618244,1501038720782,3.29,,0.13,0.03,0.7,-1,-4,7,0,2700,320,36.113647,-115.145897,19.88,5.539,2041.0,9,3,1.8,0,0.0,-1,0.0,0.0,0.0,0
2618254,1501038720792,,,,,,,,,0,2880,320,,,,,,,,,,,,,,,
2618264,1501038720802,,,,,,,,,0,2835,320,,,,,,,,,,,,,,,
2618274,1501038720812,,,,,,,,,0,2775,320,,,,,,,,,,,,,,,
2618284,1501038720822,3.25,,0.1,0.06,0.95,-0,4,3,0,2700,320,,,,,,,,,,,,,,,
2618294,1501038720832,,,,,,,,,0,2880,320,,,,,,,,,,,,,,,
2618304,1501038720842,,,,,,,,,0,2820,320,,,,,,,,,,,,,,,
2618314,1501038720852,,,,,,,,,0,2790,320,,,,,,,,,,,,,,,
2618324,1501038720862,3.26,,0.12,-0.03,1.13,1,5,-1,0,2760,320,,,,,,,,,,,,,,,
2618334,1501038720872,,,,,,,,,0,2865,320,,,,,,,,,,,,,,,
2618344,1501038720882,,,,,,,,,0,2865,320,36.113647,-115.145912,19.99,5.539,2041.0,9,3,1.8,0,0.0,-1,0.0,0.0,0.0,0
2618354,1501038720892,,,,,,,,,0,2820,330,,,,,,,,,,,,,,,
2618364,1501038720902,3.22,,0.13,0.01,1.18,-0,6,1,0,2760,330,,,,,,,,,,,,,,,
2618374,1501038720912,,,,,,,,,0,2865,330,,,,,,,,,,,,,,,
2618384,1501038720922,,,,,,,,,0,2865,320,,,,,,,,,,,,,,,
2618394,1501038720932,,,,,,,,,0,2835,320,,,,,,,,,,,,,,,
2618404,1501038720942,3.27,,0.11,0.04,0.98,-0,1,3,0,2805,320,,,,,,,,,,,,,,,
2618414,1501038720952,,,,,,,,,0,2730,330,,,,,,,,,,,,,,,
2618424,1501038720962,,,,,,,,,0,2910,330,,,,,,,,,,,,,,,
2618434,1501038720972,,,,,,,,,0,2880,330,,,,,,,,,,,,,,,
2618444,1501038720982,3.25,,0.1,0.02,0.77,-0,-9,4,0,2835,330,36.113647,-115.14592,20.49,5.54,2040.9,9,3,1.8,0,0.0,-1,0.0,0.0,0.0,0
2618454,1501038720992,,,,,,,,,0,2730,330,,,,,,,,,,,,,,,
2618464,1501038720996,,,,,,,,,0,2910,330,,,,,,,,,,,,,,,
2618474,1501038721006,,,,,,,,,0,2865,330,,,,,,,,,,,,,,,
2618484,1501038721016,3.28,,0.14,-0.07,0.71,-1,-16,7,0,2805,330,,,,,,,,,,,,,,,
2618494,1501038721026,,,,,,,,,0,2760,330,,,,,,,,,,,,,,,
2618504,1501038721036,,,,,,,,,0,2895,330,,,,,,,,,,,,,,,
2618514,1501038721046,,,,,,,,,0,2910,330,,,,,,,,,,,,,,,
2618524,1501038721056,3.28,,0.22,-0.12,0.63,-1,-20,5,0,2865,330,,,,,,,,,,,,,,,
2618534,1501038721066,,,,,,,,,0,2805,330,,,,,,,,,,,,,,,
2618544,1501038721076,,,,,,,,,0,2910,320,36.113647,-115.145935,20.83,5.541,2040.9,9,3,1.8,0,0.0,-1,0.0,0.0,0.0,0
2618554,1501038721092,,,,,,,,,0,2910,320,,,,,,,,,,,,,,,
2618564,1501038721102,3.22,,0.25,-0.11,0.57,-2,-20,4,0,2895,330,,,,,,,,,,,,,,,
2618574,1501038721112,,,,,,,,,0,2820,330,,,,,,,,,,,,,,,
2618584,1501038721122,,,,,,,,,0,2925,330,,,,,,,,,,,,,,,
2618594,1501038721132,,,,,,,,,0,2940,330,,,,,,,,,,,,,,,
2618604,1501038721142,3.21,,0.26,-0.01,0.63,-1,-12,6,0,2925,330,,,,,,,,,,,,,,,
2618614,1501038721152,,,,,,,,,0,2835,330,,,,,,,,,,,,,,,
2618624,1501038721162,,,,,,,,,0,2940,340,,,,,,,,,,,,,,,
2618634,1501038721172,,,,,,,,,0,2940,340,,,,,,,,,,,,,,,
2618644,1501038721182,3.21,,0.19,0.01,0.83,-0,-1,4,0,2940,340,36.113647,-115.145935,21.03,5.541,2040.9,9,3,1.8,0,0.0,-1,0.0,0.0,0.0,0
2618654,1501038721192,,,,,,,,,0,2895,340,,,,,,,,,,,,,,,
2618664,1501038721202,,,,,,,,,0,2820,340,,,,,,,,,,,,,,,
2618674,1501038721212,,,,,,,,,0,2970,340,,,,,,,,,,,,,,,
2618684,1501038721222,3.16,,0.13,-0.04,1.05,3,8,-0,0,2940,330,,,,,,,,,,,,,,,
2618694,1501038721232,,,,,,,,,0,2880,330,,,,,,,,,,,,,,,
2618704,1501038721242,,,,,,,,,0,2835,330,,,,,,,,,,,,,,,
2618714,1501038721252,,,,,,,,,0,2985,340,,,,,,,,,,,,,,,
2618724,1501038721262,3.22,,0.11,-0.02,1.23,3,14,-6,0,2955,340,,,,,,,,,,,,,,,
2618734,1501038721272,,,,,,,,,0,2895,340,,,,,,,,,,,,,,,
2618744,1501038721282,,,,,,,,,0,2820,330,36.113647,-115.14595,21.26,5.542,2040.9,9,3,1.8,0,0.0,-1,0.0,0.0,0.0,0
2618754,1501038721291,,,,,,,,,0,2970,330,,,,,,,,,,,,,,,
2618764,1501038721301,3.17,,0.12,-0.11,1.38,1,17,-11,0,2955,330,,,,,,,,,,,,,,,
2618774,1501038721311,,,,,,,,,0,2880,350,,,,,,,,,,,,,,,
2618784,1501038721321,,,,,,,,,0,2835,350,,,,,,,,,,,,,,,
2618794,1501038721331,,,,,,,,,0,2985,350,,,,,,,,,,,,,,,
2618804,1501038721341,3.25,,0.11,-0.1,1.47,-1,21,-6,0,2955,340,,,,,,,,,,,,,,,
2618814,1501038721351,,,,,,,,,0,2925,340,,,,,,,,,,,,,,,
2618824,1501038721361,,,,,,,,,0,2835,340,,,,,,,,,,,,,,,
2618834,1501038721371,,,,,,,,,0,3000,340,,,,,,,,,,,,,,,
2618844,1501038721381,3.25,,0.12,-0.07,1.54,-1,21,-3,0,2970,340,36.113647,-115.145958,21.41,5.542,2040.9,9,3,1.8,0,0.0,-1,0.0,0.0,0.0,0
2618854,1501038721391,,,,,,,,,0,2910,340,,,,,,,,,,,,,,,
2618864,1501038721401,,,,,,,,,0,2895,330,,,,,,,,,,,,,,,
2618874,1501038721411,,,,,,,,,0,2955,330,,,,,,,,,,,,,,,
2618884,1501038721421,3.2,,0.13,-0.06,1.53,-1,18,1,0,2940,330,,,,,,,,,,,,,,,
2618894,1501038721431,,,,,,,,,0,2910,340,,,,,,,,,,,,,,,
2618904,1501038721441,,,,,,,,,0,2850,340,,,,,,,,,,,,,,,
2618914,1501038721451,,,,,,,,,0,2850,340,,,,,,,,,,,,,,,
2618924,1501038721461,3.24,,0.11,-0.09,1.45,-1,16,2,0,2790,330,,,,,,,,,,,,,,,
2618934,1501038721471,,,,,,,,,0,2790,330,,,,,,,,,,,,,,,
2618944,1501038721481,,,,,,,,,0,2730,330,36.113647,-115.145973,21.81,5.543,2040.9,9,3,1.8,0,0.0,-1,0.0,0.0,0.0,0
2618954,1501038721491,,,,,,,,,0,2730,330,,,,,,,,,,,,,,,
2618964,1501038721501,3.29,,0.04,-0.06,1.31,-1,12,3,0,2715,330,,,,,,,,,,,,,,,
2618974,1501038721511,,,,,,,,,0,2700,330,,,,,,,,,,,,,,,
2618984,1501038721521,,,,,,,,,0,2670,320,,,,,,,,,,,,,,,
2618994,1501038721531,,,,,,,,,0,2655,320,,,,,,,,,,,,,,,
2619004,1501038721541,3.24,,-0.05,-0.07,1.13,-0,3,3,0,2685,320,,,,,,,,,,,,,,,
2619014,1501038721551,,,,,,,,,0,2625,310,,,,,,,,,,,,,,,
2619024,1501038721561,,,,,,,,,0,2640,310,,,,,,,,,,,,,,,
2619034,1501038721571,,,,,,,,,0,2580,310,,,,,,,,,,,,,,,
2619044,1501038721581,3.24,4.51,-0.09,-0.02,1.11,-1,5,4,0,2580,300,36.113647,-115.145988,22.05,5.544,2041.0,9,3,1.8,0,0.0,-1,0.0,0.0,0.0,0
2619054,1501038721591,,,,,,,,,0,2580,300,,,,,,,,,,,,,,,
2619064,1501038721601,,,,,,,,,0,2550,300,,,,,,,,,,,,,,,
2619074,1501038721611,,,,,,,,,0,2550,300,,,,,,,,,,,,,,,
2619084,1501038721621,3.2,,-0.18,-0.08,1.25,-1,13,3,0,2520,300,,,,,,,,,,,,,,,
2619094,1501038721631,,,,,,,,,0,2535,300,,,,,,,,,,,,,,,
2619104,1501038721641,,,,,,,,,0,2520,300,,,,,,,,,,,,,,,
2619114,1501038721651,,,,,,,,,0,2490,290,,,,,,,,,,,,,,,
2619124,1501038721661,3.22,,-0.21,-0.04,1.24,-1,11,4,0,2475,290,,,,,,,,,,,,,,,
2619134,1501038721671,,,,,,,,,0,2475,290,,,,,,,,,,,,,,,
2619144,1501038721681,,,,,,,,,0,2505,290,36.113647,-115.145996,21.93,5.544,2041.0,9,3,1.8,0,0.0,-1,0.0,0.0,0.0,0
2619154,1501038721691,,,,,,,,,0,2460,290,,,,,,,,,,,,,,,
2619164,1501038721701,3.19,,-0.25,-0.02,1.13,-1,7,2,0,2460,290,,,,,,,,,,,,,,,
2619174,1501038721711,,,,,,,,,0,2430,290,,,,,,,,,,,,,,,
2619184,1501038721721,,,,,,,,,0,2415,290,,,,,,,,,,,,,,,
2619194,1501038721731,,,,,,,,,0,2445,290,,,,,,,,,,,,,,,
2619204,1501038721741,3.17,,-0.33,-0.05,1.18,-1,10,5,0,2400,290,,,,,,,,,,,,,,,
2619214,1501038721751,,,,,,,,,0,2385,280,,,,,,,,,,,,,,,
2619224,1501038721761,,,,,,,,,0,2370,280,,,,,,,,,,,,,,,
2619234,1501038721771,,,,,,,,,0,2355,280,,,,,,,,,,,,,,,
2619244,1501038721781,3.17,,-0.36,0.01,1.16,-1,8,7,0,2370,280,36.113644,-115.146011,21.34,5.545,2041.1,9,3,1.8,0,0.0,-1,0.0,0.0,0.0,0
2619254,1501038721791,,,,,,,,,0,2325,270,,,,,,,,,,,,,,,
2619264,1501038721801,,,,,,,,,0,2310,270,,,,,,,,,,,,,,,
2619274,1501038721811,,,,,,,,,0,2310,270,,,,,,,,,,,,,,,
2619284,1501038721821,3.22,,-0.43,-0.0,1.1,-1,6,5,0,2280,270,,,,,,,,,,,,,,,
2619294,1501038721831,,,,,,,,,0,2310,270,,,,,,,,,,,,,,,
2619304,1501038721841,,,,,,,,,0,2265,270,,,,,,,,,,,,,,,
2619314,1501038721851,,,,,,,,,0,2250,270,,,,,,,,,,,,,,,
2619324,1501038721861,3.24,,-0.43,-0.03,1.07,-0,3,5,0,2250,260,,,,,,,,,,,,,,,
2619334,1501038721871,,,,,,,,,0,2235,260,,,,,,,,,,,,,,,
2619344,1501038721881,,,,,,,,,0,2235,260,36.113644,-115.146011,20.57,5.545,2041.0,9,3,1.8,0,0.0,-1,0.0,0.0,0.0,0
2619354,1501038721893,,,,,,,,,0,2220,260,,,,,,,,,,,,,,,
2619364,1501038721903,3.21,,-0.49,-0.05,1.07,-1,1,3,0,2220,260,,,,,,,,,,,,,,,
2619374,1501038721913,,,,,,,,,0,2235,260,,,,,,,,,,,,,,,
2619384,1501038721923,,,,,,,,,0,2190,260,,,,,,,,,,,,,,,
2619394,1501038721933,,,,,,,,,0,2175,260,,,,,,,,,,,,,,,
2619404,1501038721943,3.27,,-0.48,-0.06,1.06,-1,-1,2,0,2190,260,,,,,,,,,,,,,,,
2619414,1501038721953,,,,,,,,,0,2145,260,,,,,,,,,,,,,,,
2619424,1501038721963,,,,,,,,,0,2130,260,,,,,,,,,,,,,,,
2619434,1501038721973,,,,,,,,,0,2130,250,,,,,,,,,,,,,,,
2619444,1501038721983,3.27,,-0.5,-0.05,1.07,-1,-1,3,0,2085,250,36.113644,-115.146027,19.72,5.546,2041.0,9,3,1.8,0,0.0,-1,0.0,0.0,0.0,0
2619454,1501038721993,,,,,,,,,0,2085,250,,,,,,,,,,,,,,,
2619464,1501038721995,,,,,,,,,0,2070,250,,,,,,,,,,,,,,,
2619474,1501038722005,,,,,,,,,0,2070,250,,,,,,,,,,,,,,,
2619484,1501038722015,3.25,,-0.49,-0.03,1.01,-2,-4,3,0,2055,240,,,,,,,,,,,,,,,
2619494,1501038722025,,,,,,,,,0,2025,240,,,,,,,,,,,,,,,
2619504,1501038722035,,,,,,,,,0,2025,240,,,,,,,,,,,,,,,
2619514,1501038722045,,,,,,,,,0,2010,240,,,,,,,,,,,,,,,
2619524,1501038722055,3.29,,-0.51,-0.05,1.05,-2,-3,5,0,2010,240,,,,,,,,,,,,,,,
2619534,1501038722065,,,,,,,,,0,2010,240,,,,,,,,,,,,,,,
2619544,1501038722075,,,,,,,,,0,1980,240,36.113644,-115.146034,18.49,5.546,2041.0,9,3,1.8,0,0.0,-1,0.0,0.0,0.0,0
2619554,1501038722085,,,,,,,,,0,1965,240,,,,,,,,,,,,,,,
2619564,1501038722099,3.26,,-0.54,-0.04,1.07,-1,-4,4,0,1950,230,,,,,,,,,,,,,,,
2619574,1501038722109,,,,,,,,,0,1950,230,,,,,,,,,,,,,,,
2619584,1501038722119,,,,,,,,,0,1935,230,,,,,,,,,,,,,,,
2619594,1501038722129,,,,,,,,,0,1920,230,,,,,,,,,,,,,,,
2619604,1501038722139,3.3,,-0.53,-0.05,1.05,-1,-4,3,0,1905,230,,,,,,,,,,,,,,,
2619614,1501038722149,,,,,,,,,0,1905,230,,,,,,,,,,,,,,,
2619624,1501038722159,,,,,,,,,0,1875,230,,,,,,,,,,,,,,,
2619634,1501038722169,,,,,,,,,0,1875,230,,,,,,,,,,,,,,,
2619644,1501038722179,3.24,,-0.54,-0.03,1.02,-0,-5,4,0,1890,230,36.113644,-115.14605,17.39,5.547,2041.0,9,3,1.8,0,0.0,-1,0.0,0.0,0.0,0
2619654,1501038722193,,,,,,,,,0,1860,220,,,,,,,,,,,,,,,
2619664,1501038722203,,,,,,,,,0,1815,220,,,,,,,,,,,,,,,
2619674,1501038722213,,,,,,,,,0,1815,220,,,,,,,,,,,,,,,
2619684,1501038722223,3.27,,-0.53,-0.02,1.0,-1,-4,4,0,1785,220,,,,,,,,,,,,,,,
2619694,1501038722233,,,,,,,,,0,1770,210,,,,,,,,,,,,,,,
2619704,1501038722243,,,,,,,,,0,1755,210,,,,,,,,,,,,,,,
2619714,1501038722253,,,,,,,,,0,1755,210,,,,,,,,,,,,,,,
2619724,1501038722263,3.28,,-0.53,0.01,1.03,-1,-5,5,0,1740,210,,,,,,,,,,,,,,,
2619734,1501038722273,,,,,,,,,0,1725,210,,,,,,,,,,,,,,,
2619744,1501038722283,,,,,,,,,0,1725,200,36.113644,-115.14605,16.24,5.547,2041.1,9,3,2.0,0,0.0,-1,0.0,0.0,0.0,0
2619754,1501038722292,,,,,,,,,0,1695,200,,,,,,,,,,,,,,,
2619764,1501038722302,3.3,,-0.52,-0.03,1.06,-1,-5,5,0,1695,200,,,,,,,,,,,,,,,
2619774,1501038722312,,,,,,,,,0,1680,200,,,,,,,,,,,,,,,
2619784,1501038722322,,,,,,,,,0,1695,200,,,,,,,,,,,,,,,
2619794,1501038722332,,,,,,,,,0,1665,200,,,,,,,,,,,,,,,
2619804,1501038722342,3.28,,-0.5,-0.05,1.03,-1,-4,4,0,1650,190,,,,,,,,,,,,,,,
2619814,1501038722352,,,,,,,,,0,1650,190,,,,,,,,,,,,,,,
2619824,1501038722362,,,,,,,,,0,1605,190,,,,,,,,,,,,,,,
2619834,1501038722372,,,,,,,,,0,1605,190,,,,,,,,,,,,,,,
2619844,1501038722382,3.24,,-0.51,-0.04,1.03,-0,-3,4,0,1605,190,36.113644,-115.146065,14.89,5.548,2041.1,9,3,1.8,0,0.0,-1,0.0,0.0,0.0,0
2619854,1501038722392,,,,,,,,,0,1620,180,,,,,,,,,,,,,,,
2619864,1501038722402,,,,,,,,,0,1620,180,,,,,,,,,,,,,,,
2619874,1501038722412,,,,,,,,,0,1605,180,,,,,,,,,,,,,,,
2619884,1501038722422,3.29,,-0.5,-0.06,1.0,-1,-4,6,0,1590,180,,,,,,,,,,,,,,,
2619894,1501038722432,,,,,,,,,0,1590,180,,,,,,,,,,,,,,,
2619904,1501038722442,,,,,,,,,0,1560,180,,,,,,,,,,,,,,,
2619914,1501038722452,,,,,,,,,0,1545,180,,,,,,,,,,,,,,,
2619924,1501038722462,3.27,,-0.5,-0.1,1.01,-1,-5,5,0,1545,180,,,,,,,,,,,,,,,
2619934,1501038722472,,,,,,,,,0,1545,180,,,,,,,,,,,,,,,
2619944,1501038722482,,,,,,,,,0,1530,180,36.113644,-115.146065,13.76,5.548,2041.1,9,3,1.8,0,0.0,-1,0.0,0.0,0.0,0
2619954,1501038722492,,,,,,,,,0,1515,180,,,,,,,,,,,,,,,
2619964,1501038722502,3.26,,-0.51,-0.04,1.01,-1,-5,5,0,1500,170,,,,,,,,,,,,,,,
2619974,1501038722512,,,,,,,,,0,1500,170,,,,,,,,,,,,,,,
2619984,1501038722522,,,,,,,,,0,1455,170,,,,,,,,,,,,,,,
2619994,1501038722532,,,,,,,,,0,1455,170,,,,,,,,,,,,,,,
2620004,1501038722542,3.27,,-0.52,-0.02,1.0,-1,-6,5,0,1455,170,,,,,,,,,,,,,,,
2620014,1501038722552,,,,,,,,,0,1470,170,,,,,,,,,,,,,,,
2620024,1501038722562,,,,,,,,,0,1485,160,,,,,,,,,,,,,,,
2620034,1501038722572,,,,,,,,,0,1455,160,,,,,,,,,,,,,,,
2620044,1501038722582,3.27,4.52,-0.5,-0.04,0.98,-1,-7,3,0,1440,160,36.113644,-115.146072,12.8,5.549,2041.2,9,3,1.8,0,0.0,-1,0.0,0.0,0.0,0
2620054,1501038722592,,,,,,,,,0,1440,160,,,,,,,,,,,,,,,
2620064,1501038722602,,,,,,,,,0,1395,160,,,,,,,,,,,,,,,
2620074,1501038722612,,,,,,,,,0,1395,160,,,,,,,,,,,,,,,
2620084,1501038722622,3.22,,-0.49,-0.05,0.96,-1,-8,3,0,1380,160,,,,,,,,,,,,,,,
2620094,1501038722632,,,,,,,,,0,1425,140,,,,,,,,,,,,,,,
2620104,1501038722642,,,,,,,,,0,1440,140,,,,,,,,,,,,,,,
2620114,1501038722652,,,,,,,,,0,1425,140,,,,,,,,,,,,,,,
2620124,1501038722662,3.27,,-0.46,-0.06,0.97,-1,-8,3,0,1395,140,,,,,,,,,,,,,,,
2620134,1501038722672,,,,,,,,,0,1395,140,,,,,,,,,,,,,,,
2620144,1501038722682,,,,,,,,,0,1365,140,36.113644,-115.146072,11.78,5.549,2041.2,9,3,1.8,0,0.0,-1,0.0,0.0,0.0,0
2620154,1501038722692,,,,,,,,,0,1365,140,,,,,,,,,,,,,,,
2620164,1501038722702,3.26,,-0.48,-0.02,0.97,-1,-8,3,0,1350,140,,,,,,,,,,,,,,,
2620174,1501038722712,,,,,,,,,0,1320,140,,,,,,,,,,,,,,,
2620184,1501038722722,,,,,,,,,0,1395,140,,,,,,,,,,,,,,,
2620194,1501038722732,,,,,,,,,0,1410,140,,,,,,,,,,,,,,,
2620204,1501038722742,3.28,,-0.5,-0.02,0.96,-1,-6,4,0,1395,140,,,,,,,,,,,,,,,
2620214,1501038722752,,,,,,,,,0,1380,140,,,,,,,,,,,,,,,
2620224,1501038722762,,,,,,,,,0,1350,140,,,,,,,,,,,,,,,
2620234,1501038722772,,,,,,,,,0,1335,140,,,,,,,,,,,,,,,
2620244,1501038722782,3.22,,-0.51,0.01,0.97,-1,-5,4,0,1305,130,36.113644,-115.146088,11.27,5.549,2041.1,9,3,1.8,0,0.0,-1,0.0,0.0,0.0,0
2620254,1501038722792,,,,,,,,,0,1290,130,,,,,,,,,,,,,,,
2620264,1501038722800,,,,,,,,,0,1290,130,,,,,,,,,,,,,,,
2620274,1501038722810,,,,,,,,,0,1380,130,,,,,,,,,,,,,,,
2620284,1501038722820,3.28,,-0.47,-0.02,0.95,-1,-8,4,0,1410,130,,,,,,,,,,,,,,,
2620294,1501038722830,,,,,,,,,0,1395,130,,,,,,,,,,,,,,,
2620304,1501038722840,,,,,,,,,0,1365,130,,,,,,,,,,,,,,,
2620314,1501038722850,,,,,,,,,0,1350,130,,,,,,,,,,,,,,,
2620324,1501038722860,3.27,,-0.44,-0.01,0.95,-1,-9,5,0,1320,120,,,,,,,,,,,,,,,
2620334,1501038722870,,,,,,,,,0,1290,120,,,,,,,,,,,,,,,
2620344,1501038722880,,,,,,,,,0,1260,120,36.113644,-115.146088,10.61,5.55,2040.9,9,3,1.8,0,0.0,-1,0.0,0.0,0.0,0
2620354,1501038722892,,,,,,,,,0,1365,120,,,,,,,,,,,,,,,
2620364,1501038722902,3.27,,-0.44,-0.01,1.0,-2,-8,5,0,1410,120,,,,,,,,,,,,,,,
2620374,1501038722912,,,,,,,,,0,1410,120,,,,,,,,,,,,,,,
2620384,1501038722922,,,,,,,,,0,1380,120,,,,,,,,,,,,,,,
2620394,1501038722932,,,,,,,,,0,1365,120,,,,,,,,,,,,,,,
2620404,1501038722942,3.23,,-0.44,-0.02,1.02,-2,-7,4,0,1350,120,,,,,,,,,,,,,,,
2620414,1501038722952,,,,,,,,,0,1320,7390,,,,,,,,,,,,,,,
2620424,1501038722962,,,,,,,,,0,1290,7400,,,,,,,,,,,,,,,
2620434,1501038722972,,,,,,,,,0,1245,7400,,,,,,,,,,,,,,,
2620444,1501038722982,3.29,,-0.44,-0.01,0.97,-2,-8,6,0,1410,7400,36.113644,-115.146103,9.22,5.55,2040.8,9,3,1.8,0,0.0,-1,0.0,0.0,0.0,0
2620454,1501038722992,,,,,,,,,0,1455,7400,,,,,,,,,,,,,,,
2620464,1501038722994,,,,,,,,,0,1440,7400,,,,,,,,,,,,,,,
2620474,1501038723004,,,,,,,,,0,1410,7400,,,,,,,,,,,,,,,
2620484,1501038723014,3.21,,-0.43,-0.02,0.97,-2,-7,6,0,1410,7400,,,,,,,,,,,,,,,
2620494,1501038723024,,,,,,,,,0,1395,7400,,,,,,,,,,,,,,,
2620504,1501038723034,,,,,,,,,0,1365,1260,,,,,,,,,,,,,,,
2620514,1501038723044,,,,,,,,,0,1320,1260,,,,,,,,,,,,,,,
2620524,1501038723054,3.27,,-0.4,-0.0,0.98,-2,-9,5,0,1260,1260,,,,,,,,,,,,,,,
2620534,1501038723064,,,,,,,,,0,1440,1260,,,,,,,,,,,,,,,
2620544,1501038723074,,,,,,,,,0,1500,1260,36.113644,-115.146103,8.03,5.55,2040.7,9,3,1.8,0,0.0,-1,0.0,0.0,0.0,0
2620554,1501038723084,,,,,,,,,0,1470,1260,,,,,,,,,,,,,,,
2620564,1501038723100,3.27,,-0.37,0.02,0.95,-2,-8,5,0,1425,1260,,,,,,,,,,,,,,,
2620574,1501038723110,,,,,,,,,0,1395,1260,,,,,,,,,,,,,,,
2620584,1501038723120,,,,,,,,,0,1350,1260,,,,,,,,,,,,,,,
2620594,1501038723130,,,,,,,,,0,1320,1260,,,,,,,,,,,,,,,
2620604,1501038723140,3.19,,-0.38,0.02,0.97,-2,-8,6,0,1245,1260,,,,,,,,,,,,,,,
2620614,1501038723150,,,,,,,,,0,1455,420,,,,,,,,,,,,,,,
2620624,1501038723160,,,,,,,,,0,1530,420,,,,,,,,,,,,,,,
2620634,1501038723170,,,,,,,,,0,1515,420,,,,,,,,,,,,,,,
2620644,1501038723180,3.23,,-0.34,0.05,1.01,-2,-7,4,0,1485,420,36.113644,-115.146103,7.45,5.55,2040.6,9,3,1.8,0,0.0,-1,0.0,0.0,0.0,0
2620654,1501038723192,,,,,,,,,0,1455,420,,,,,,,,,,,,,,,
2620664,1501038723202,,,,,,,,,0,1455,420,,,,,,,,,,,,,,,
2620674,1501038723212,,,,,,,,,0,1425,420,,,,,,,,,,,,,,,
2620684,1501038723222,3.29,,-0.32,0.03,1.05,-1,-6,5,0,1380,420,,,,,,,,,,,,,,,
2620694,1501038723232,,,,,,,,,0,1305,420,,,,,,,,,,,,,,,
2620704,1501038723242,,,,,,,,,0,1515,420,,,,,,,,,,,,,,,
2620714,1501038723252,,,,,,,,,0,1590,420,,,,,,,,,,,,,,,
2620724,1501038723262,3.28,,-0.24,0.01,1.15,-1,-7,4,0,1560,350,,,,,,,,,,,,,,,
2620734,1501038723272,,,,,,,,,0,1530,350,,,,,,,,,,,,,,,
2620744,1501038723282,,,,,,,,,0,1500,350,36.113644,-115.146103,6.71,5.551,2040.6,9,3,1.8,0,0.0,-1,0.0,0.0,0.0,0
2620754,1501038723291,,,,,,,,,0,1455,350,,,,,,,,,,,,,,,
2620764,1501038723301,3.3,,-0.24,0.0,1.12,-1,-8,4,0,1410,350,,,,,,,,,,,,,,,
2620774,1501038723311,,,,,,,,,0,1335,350,,,,,,,,,,,,,,,
2620784,1501038723321,,,,,,,,,0,1515,350,,,,,,,,,,,,,,,
2620794,1501038723331,,,,,,,,,0,1590,350,,,,,,,,,,,,,,,
2620804,1501038723341,3.29,,-0.19,-0.07,1.17,-2,-7,4,0,1575,350,,,,,,,,,,,,,,,
2620814,1501038723351,,,,,,,,,0,1530,350,,,,,,,,,,,,,,,
2620824,1501038723361,,,,,,,,,0,1500,350,,,,,,,,,,,,,,,
2620834,1501038723371,,,,,,,,,0,1470,350,,,,,,,,,,,,,,,
2620844,1501038723381,3.26,,-0.2,-0.08,1.19,-1,-6,3,0,1425,350,36.113644,-115.146111,6.18,5.551,2040.6,9,3,1.8,0,0.0,-1,0.0,0.0,0.0,0
2620854,1501038723391,,,,,,,,,0,1350,240,,,,,,,,,,,,,,,
2620864,1501038723401,,,,,,,,,0,1530,240,,,,,,,,,,,,,,,
2620874,1501038723411,,,,,,,,,0,1620,240,,,,,,,,,,,,,,,
2620884,1501038723421,3.29,,-0.16,-0.14,1.23,-1,-5,2,0,1590,240,,,,,,,,,,,,,,,
2620894,1501038723431,,,,,,,,,0,1560,240,,,,,,,,,,,,,,,
2620904,1501038723441,,,,,,,,,0,1530,240,,,,,,,,,,,,,,,
2620914,1501038723451,,,,,,,,,0,1485,240,,,,,,,,,,,,,,,
2620924,1501038723461,3.29,,-0.15,-0.14,1.29,0,-4,1,0,1440,240,,,,,,,,,,,,,,,
2620934,1501038723471,,,,,,,,,0,1365,240,,,,,,,,,,,,,,,
2620944,1501038723481,,,,,,,,,0,1545,240,36.113644,-115.146111,5.79,5.551,2040.5,9,3,1.8,0,0.0,-1,0.0,0.0,0.0,0
2620954,1501038723491,,,,,,,,,0,1575,240,,,,,,,,,,,,,,,
2620964,1501038723501,3.2,,-0.12,-0.16,1.35,0,-4,1,0,1545,240,,,,,,,,,,,,,,,
2620974,1501038723511,,,,,,,,,0,1515,10000000,,,,,,,,,,,,,,,
2620984,1501038723521,,,,,,,,,0,1515,210,,,,,,,,,,,,,,,
2620994,1501038723531,,,,,,,,,0,1470,210,,,,,,,,,,,,,,,
2621004,1501038723541,3.29,,-0.12,-0.13,1.29,0,-3,1,0,1425,210,,,,,,,,,,,,,,,
2621014,1501038723551,,,,,,,,,0,1350,210,,,,,,,,,,,,,,,
2621024,1501038723561,,,,,,,,,0,1515,210,,,,,,,,,,,,,,,
2621034,1501038723571,,,,,,,,,0,1590,210,,,,,,,,,,,,,,,
2621044,1501038723581,3.29,4.54,-0.11,-0.13,1.34,0,-3,1,0,1545,210,36.113644,-115.146111,5.3,5.551,2040.5,9,3,1.8,0,0.0,-1,0.0,0.0,0.0,0
2621054,1501038723591,,,,,,,,,0,1515,210,,,,,,,,,,,,,,,
2621064,1501038723601,,,,,,,,,0,1485,210,,,,,,,,,,,,,,,
2621074,1501038723611,,,,,,,,,0,1440,210,,,,,,,,,,,,,,,
2621084,1501038723621,3.27,,-0.13,-0.12,1.3,1,-2,2,0,1395,210,,,,,,,,,,,,,,,
2621094,1501038723631,,,,,,,,,0,1305,210,,,,,,,,,,,,,,,
2621104,1501038723641,,,,,,,,,0,1500,210,,,,,,,,,,,,,,,
2621114,1501038723651,,,,,,,,,0,1575,210,,,,,,,,,,,,,,,
2621124,1501038723661,3.24,,-0.12,-0.11,1.39,0,-2,2,0,1545,210,,,,,,,,,,,,,,,
2621134,1501038723671,,,,,,,,,0,1500,150,,,,,,,,,,,,,,,
2621144,1501038723681,,,,,,,,,0,1470,150,36.113644,-115.146111,4.66,5.551,2040.5,9,3,1.8,0,0.0,-1,0.0,0.0,0.0,0
2621154,1501038723691,,,,,,,,,0,1425,150,,,,,,,,,,,,,,,
2621164,1501038723701,3.28,,-0.13,-0.09,1.32,-0,-2,2,0,1365,150,,,,,,,,,,,,,,,
2621174,1501038723711,,,,,,,,,0,1275,150,,,,,,,,,,,,,,,
2621184,1501038723721,,,,,,,,,0,1470,150,,,,,,,,,,,,,,,
2621194,1501038723731,,,,,,,,,0,1560,150,,,,,,,,,,,,,,,
2621204,1501038723741,3.28,,-0.12,-0.11,1.31,-0,-1,3,0,1515,150,,,,,,,,,,,,,,,
2621214,1501038723751,,,,,,,,,0,1485,150,,,,,,,,,,,,,,,
2621224,1501038723761,,,,,,,,,0,1455,150,,,,,,,,,,,,,,,
2621234,1501038723771,,,,,,,,,0,1410,10000000,,,,,,,,,,,,,,,
2621244,1501038723781,3.26,,-0.12,-0.12,1.3,-1,-0,4,0,1350,0,36.113644,-115.146111,4.18,5.551,2040.6,9,3,1.8,0,0.0,-1,0.0,0.0,0.0,0
2621254,1501038723791,,,,,,,,,0,1260,0,,,,,,,,,,,,,,,
2621264,1501038723801,,,,,,,,,0,1455,0,,,,,,,,,,,,,,,
2621274,1501038723811,,,,,,,,,0,1560,0,,,,,,,,,,,,,,,
2621284,1501038723821,3.21,,-0.14,-0.07,1.18,-1,-3,6,0,1515,0,,,,,,,,,,,,,,,
2621294,1501038723831,,,,,,,,,0,1470,0,,,,,,,,,,,,,,,
2621304,1501038723841,,,,,,,,,0,1425,0,,,,,,,,,,,,,,,
2621314,1501038723851,,,,,,,,,0,1425,3500,,,,,,,,,,,,,,,
2621324,1501038723861,3.26,,-0.13,-0.07,1.17,-1,-3,5,0,1380,3500,,,,,,,,,,,,,,,
2621334,1501038723871,,,,,,,,,0,1320,3500,,,,,,,,,,,,,,,
2621344,1501038723881,,,,,,,,,0,1230,3500,36.113644,-115.146126,3.82,5.551,2040.8,9,3,1.8,0,0.0,-1,0.0,0.0,0.0,0
2621354,1501038723891,,,,,,,,,0,1455,3500,,,,,,,,,,,,,,,
2621364,1501038723901,3.27,,-0.12,-0.08,1.07,-0,-5,4,0,1530,3500,,,,,,,,,,,,,,,
2621374,1501038723911,,,,,,,,,0,1500,3500,,,,,,,,,,,,,,,
2621384,1501038723921,,,,,,,,,0,1470,3500,,,,,,,,,,,,,,,
2621394,1501038723931,,,,,,,,,0,1425,3500,,,,,,,,,,,,,,,
2621404,1501038723941,3.26,,-0.13,-0.08,1.03,-0,-5,4,0,1380,0,,,,,,,,,,,,,,,
2621414,1501038723951,,,,,,,,,0,1320,0,,,,,,,,,,,,,,,
2621424,1501038723961,,,,,,,,,0,1215,0,,,,,,,,,,,,,,,
2621434,1501038723971,,,,,,,,,0,1440,0,,,,,,,,,,,,,,,
2621444,1501038723981,3.24,,-0.16,-0.05,1.1,-1,-4,3,0,1545,0,36.113644,-115.146126,3.41,5.552,2040.8,9,3,1.8,0,0.0,-1,0.0,0.0,0.0,0
2621454,1501038723991,,,,,,,,,0,1500,0,,,,,,,,,,,,,,,
2621464,1501038723995,,,,,,,,,0,1455,0,,,,,,,,,,,,,,,
2621474,1501038724005,,,,,,,,,0,1425,0,,,,,,,,,,,,,,,
2621484,1501038724015,3.25,,-0.17,-0.02,1.07,-1,-5,3,0,1425,0,,,,,,,,,,,,,,,
2621494,1501038724025,,,,,,,,,0,1380,0,,,,,,,,,,,,,,,
2621504,1501038724035,,,,,,,,,0,1320,0,,,,,,,,,,,,,,,
2621514,1501038724045,,,,,,,,,0,1200,0,,,,,,,,,,,,,,,
2621524,1501038724055,3.21,,-0.21,-0.01,1.08,-1,-3,4,0,1455,0,,,,,,,,,,,,,,,
2621534,1501038724065,,,,,,,,,0,1545,0,,,,,,,,,,,,,,,
2621544,1501038724075,,,,,,,,,0,1530,0,36.113644,-115.146126,3.05,5.552,2040.9,9,3,1.8,0,0.0,-1,0.0,0.0,0.0,0
2621554,1501038724091,,,,,,,,,0,1500,0,,,,,,,,,,,,,,,
2621564,1501038724101,3.21,,-0.3,-0.03,1.11,-1,-1,5,0,1485,120,,,,,,,,,,,,,,,
2621574,1501038724111,,,,,,,,,0,1455,120,,,,,,,,,,,,,,,
2621584,1501038724121,,,,,,,,,0,1410,120,,,,,,,,,,,,,,,
2621594,1501038724131,,,,,,,,,0,1320,120,,,,,,,,,,,,,,,
2621604,1501038724141,3.25,,-0.31,-0.06,1.15,-1,1,5,0,1545,120,,,,,,,,,,,,,,,
2621614,1501038724151,,,,,,,,,0,1635,120,,,,,,,,,,,,,,,
2621624,1501038724161,,,,,,,,,0,1635,120,,,,,,,,,,,,,,,
2621634,1501038724171,,,,,,,,,0,1590,120,,,,,,,,,,,,,,,
2621644,1501038724181,3.23,,-0.33,-0.05,1.21,-1,0,6,0,1575,120,36.113644,-115.146126,2.77,5.552,2040.9,9,3,1.8,0,0.0,-1,0.0,0.0,0.0,0
2621654,1501038724193,,,,,,,,,0,1530,120,,,,,,,,,,,,,,,
2621664,1501038724203,,,,,,,,,0,1500,10000000,,,,,,,,,,,,,,,
2621674,1501038724213,,,,,,,,,0,1425,0,,,,,,,,,,,,,,,
2621684,1501038724223,3.22,,-0.3,-0.05,1.25,-2,1,5,0,1575,0,,,,,,,,,,,,,,,
2621694,1501038724233,,,,,,,,,0,1620,0,,,,,,,,,,,,,,,
2621704,1501038724243,,,,,,,,,0,1575,0,,,,,,,,,,,,,,,
2621714,1501038724253,,,,,,,,,0,1560,0,,,,,,,,,,,,,,,
2621724,1501038724263,3.18,,-0.29,-0.03,1.19,-2,-1,4,0,1515,0,,,,,,,,,,,,,,,
2621734,1501038724273,,,,,,,,,0,1470,0,,,,,,,,,,,,,,,
2621744,1501038724283,,,,,,,,,0,1395,0,36.113644,-115.146126,1.96,5.552,2040.8,9,3,1.8,0,0.0,-1,0.0,0.0,0.0,0
2621754,1501038724292,,,,,,,,,0,1545,0,,,,,,,,,,,,,,,
2621764,1501038724302,3.23,,-0.28,-0.01,1.17,-1,-1,4,0,1605,0,,,,,,,,,,,,,,,
2621774,1501038724312,,,,,,,,,0,1575,0,,,,,,,,,,,,,,,
2621784,1501038724322,,,,,,,,,0,1530,0,,,,,,,,,,,,,,,
2621794,1501038724332,,,,,,,,,0,1500,0,,,,,,,,,,,,,,,
2621804,1501038724342,3.26,,-0.24,0.04,1.12,-1,-2,4,0,1455,0,,,,,,,,,,,,,,,
2621814,1501038724352,,,,,,,,,0,1425,0,,,,,,,,,,,,,,,
2621824,1501038724362,,,,,,,,,0,1335,0,,,,,,,,,,,,,,,
2621834,1501038724372,,,,,,,,,0,1515,0,,,,,,,,,,,,,,,
2621844,1501038724382,3.25,,-0.2,0.04,1.15,-1,-2,3,0,1590,0,36.113644,-115.146126,0.0,5.552,2040.5,9,3,1.8,0,0.0,-1,0.0,0.0,0.0,0
2621854,1501038724392,,,,,,,,,0,1545,0,,,,,,,,,,,,,,,
2621864,1501038724402,,,,,,,,,0,1515,0,,,,,,,,,,,,,,,
2621874,1501038724412,,,,,,,,,0,1485,0,,,,,,,,,,,,,,,
2621884,1501038724422,3.22,,-0.16,0.07,1.08,-1,-4,4,0,1455,0,,,,,,,,,,,,,,,
2621894,1501038724432,,,,,,,,,0,1455,0,,,,,,,,,,,,,,,
2621904,1501038724442,,,,,,,,,0,1395,0,,,,,,,,,,,,,,,
2621914,1501038724452,,,,,,,,,0,1320,0,,,,,,,,,,,,,,,
2621924,1501038724462,3.21,,-0.14,0.06,1.17,-1,-5,4,0,1575,0,,,,,,,,,,,,,,,
2621934,1501038724472,,,,,,,,,0,1575,0,,,,,,,,,,,,,,,
2621944,1501038724482,,,,,,,,,0,1530,0,36.113644,-115.146126,0.0,5.552,2040.6,9,3,1.8,0,0.0,-1,0.0,0.0,0.0,0
2621954,1501038724492,,,,,,,,,0,1500,0,,,,,,,,,,,,,,,
2621964,1501038724502,3.27,,-0.11,0.08,1.14,-1,-6,5,0,1500,0,,,,,,,,,,,,,,,
2621974,1501038724512,,,,,,,,,0,1470,0,,,,,,,,,,,,,,,
2621984,1501038724522,,,,,,,,,0,1425,0,,,,,,,,,,,,,,,
2621994,1501038724532,,,,,,,,,0,1335,0,,,,,,,,,,,,,,,
2622004,1501038724542,3.22,,-0.07,0.05,1.21,-1,-6,4,0,1620,0,,,,,,,,,,,,,,,
2622014,1501038724552,,,,,,,,,0,1590,0,,,,,,,,,,,,,,,
2622024,1501038724562,,,,,,,,,0,1560,0,,,,,,,,,,,,,,,
2622034,1501038724572,,,,,,,,,0,1545,0,,,,,,,,,,,,,,,
2622044,1501038724582,3.22,4.52,-0.06,0.07,1.16,-1,-7,4,0,1500,0,36.113644,-115.146126,0.0,5.552,2040.9,9,3,1.8,0,0.0,-1,0.0,0.0,0.0,0
2622054,1501038724592,,,,,,,,,0,1455,0,,,,,,,,,,,,,,,
2622064,1501038724602,,,,,,,,,0,1380,0,,,,,,,,,,,,,,,
2622074,1501038724612,,,,,,,,,0,1590,0,,,,,,,,,,,,,,,
2622084,1501038724622,3.24,,-0.05,0.1,1.22,-1,-7,3,0,1650,0,,,,,,,,,,,,,,,
2622094,1501038724632,,,,,,,,,0,1635,0,,,,,,,,,,,,,,,
2622104,1501038724642,,,,,,,,,0,1590,0,,,,,,,,,,,,,,,
2622114,1501038724652,,,,,,,,,0,1575,0,,,,,,,,,,,,,,,
2622124,1501038724662,3.25,,-0.05,0.1,1.14,-0,-6,3,0,1530,0,,,,,,,,,,,,,,,
2622134,1501038724672,,,,,,,,,0,1485,0,,,,,,,,,,,,,,,
2622144,1501038724682,,,,,,,,,0,1410,0,36.113644,-115.146126,0.0,5.552,2041.0,9,3,1.8,0,0.0,-1,0.0,0.0,0.0,0
2622154,1501038724692,,,,,,,,,0,1590,0,,,,,,,,,,,,,,,
2622164,1501038724702,3.23,,-0.07,0.12,1.06,0,-8,0,0,1665,0,,,,,,,,,,,,,,,
2622174,1501038724712,,,,,,,,,0,1635,0,,,,,,,,,,,,,,,
2622184,1501038724722,,,,,,,,,0,1605,0,,,,,,,,,,,,,,,
2622194,1501038724732,,,,,,,,,0,1575,0,,,,,,,,,,,,,,,
2622204,1501038724742,3.24,,-0.07,0.09,1.0,-0,-8,0,0,1530,0,,,,,,,,,,,,,,,
2622214,1501038724752,,,,,,,,,0,1500,0,,,,,,,,,,,,,,,
2622224,1501038724762,,,,,,,,,0,1425,0,,,,,,,,,,,,,,,
2622234,1501038724772,,,,,,,,,0,1590,0,,,,,,,,,,,,,,,
2622244,1501038724782,3.24,,-0.07,0.07,0.85,-1,-7,0,0,1635,0,36.113644,-115.146126,0.0,5.552,2041.1,9,3,1.8,0,0.0,-1,0.0,0.0,0.0,0
2622254,1501038724792,,,,,,,,,0,1590,0,,,,,,,,,,,,,,,
2622264,1501038724802,,,,,,,,,0,1575,0,,,,,,,,,,,,,,,
2622274,1501038724812,,,,,,,,,0,1530,0,,,,,,,,,,,,,,,
2622284,1501038724822,3.2,,-0.02,0.02,0.9,-1,-6,2,0,1485,0,,,,,,,,,,,,,,,
2622294,1501038724832,,,,,,,,,0,1410,0,,,,,,,,,,,,,,,
2622304,1501038724842,,,,,,,,,0,1575,0,,,,,,,,,,,,,,,
2622314,1501038724852,,,,,,,,,0,1650,0,,,,,,,,,,,,,,,
2622324,1501038724862,3.27,,-0.03,-0.0,0.9,-1,-7,2,0,1605,0,,,,,,,,,,,,,,,
2622334,1501038724872,,,,,,,,,0,1575,0,,,,,,,,,,,,,,,
2622344,1501038724882,,,,,,,,,0,1545,0,36.113644,-115.146126,0.0,5.552,2041.2,9,3,1.8,0,0.0,-1,0.0,0.0,0.0,0
2622354,1501038724892,,,,,,,,,0,1500,0,,,,,,,,,,,,,,,
2622364,1501038724902,3.25,,-0.01,-0.03,1.01,-1,-5,2,0,1470,0,,,,,,,,,,,,,,,
2622374,1501038724912,,,,,,,,,0,1380,0,,,,,,,,,,,,,,,
2622384,1501038724922,,,,,,,,,0,1560,0,,,,,,,,,,,,,,,
2622394,1501038724932,,,,,,,,,0,1620,0,,,,,,,,,,,,,,,
2622404,1501038724942,3.25,,-0.0,-0.05,1.04,-0,-3,4,0,1590,0,,,,,,,,,,,,,,,
2622414,1501038724952,,,,,,,,,0,1545,0,,,,,,,,,,,,,,,
2622424,1501038724962,,,,,,,,,0,1530,0,,,,,,,,,,,,,,,
2622434,1501038724972,,,,,,,,,0,1485,0,,,,,,,,,,,,,,,
2622444,1501038724982,3.24,,0.0,-0.04,1.09,-1,-3,4,0,1440,0,36.113644,-115.146126,0.0,5.552,2041.3,9,3,1.8,0,0.0,-1,0.0,0.0,0.0,0
2622454,1501038724992,,,,,,,,,0,1365,0,,,,,,,,,,,,,,,
2622464,1501038724996,,,,,,,,,0,1530,0,,,,,,,,,,,,,,,
2622474,1501038725006,,,,,,,,,0,1605,0,,,,,,,,,,,,,,,
2622484,1501038725016,3.24,,-0.0,-0.06,1.11,-1,-1,7,0,1590,0,,,,,,,,,,,,,,,
2622494,1501038725026,,,,,,,,,0,1545,0,,,,,,,,,,,,,,,
2622504,1501038725036,,,,,,,,,0,1515,0,,,,,,,,,,,,,,,
2622514,1501038725046,,,,,,,,,0,1470,0,,,,,,,,,,,,,,,
2622524,1501038725056,3.24,,0.0,-0.01,1.1,-1,-2,7,0,1440,0,,,,,,,,,,,,,,,
2622534,1501038725066,,,,,,,,,0,1350,0,,,,,,,,,,,,,,,
2622544,1501038725076,,,,,,,,,0,1545,0,36.113644,-115.146126,0.0,5.552,2041.2,9,3,1.8,0,0.0,-1,0.0,0.0,0.0,0
2622554,1501038725094,,,,,,,,,0,1620,0,,,,,,,,,,,,,,,
2622564,1501038725104,3.22,,0.02,-0.03,1.19,-2,-2,9,0,1605,0,,,,,,,,,,,,,,,
2622574,1501038725114,,,,,,,,,0,1560,0,,,,,,,,,,,,,,,
2622584,1501038725124,,,,,,,,,0,1530,0,,,,,,,,,,,,,,,
2622594,1501038725134,,,,,,,,,0,1500,0,,,,,,,,,,,,,,,
2622604,1501038725144,3.23,,0.02,0.02,1.14,-2,-3,7,0,1455,0,,,,,,,,,,,,,,,
2622614,1501038725154,,,,,,,,,0,1365,0,,,,,,,,,,,,,,,
2622624,1501038725164,,,,,,,,,0,1575,0,,,,,,,,,,,,,,,
2622634,1501038725174,,,,,,,,,0,1635,0,,,,,,,,,,,,,,,
2622644,1501038725184,3.22,,0.04,-0.01,1.19,-3,-3,9,0,1620,0,36.113644,-115.146126,0.0,5.552,2041.1,9,3,1.8,0,0.0,-1,0.0,0.0,0.0,0
2622654,1501038725194,,,,,,,,,0,1575,0,,,,,,,,,,,,,,,
2622664,1501038725204,,,,,,,,,0,1545,0,,,,,,,,,,,,,,,
2622674,1501038725214,,,,,,,,,0,1515,0,,,,,,,,,,,,,,,
2622684,1501038725224,3.22,,0.05,0.02,1.18,-3,-4,8,0,1470,0,,,,,,,,,,,,,,,
2622694,1501038725234,,,,,,,,,0,1380,0,,,,,,,,,,,,,,,
2622704,1501038725244,,,,,,,,,0,1575,0,,,,,,,,,,,,,,,
2622714,1501038725254,,,,,,,,,0,1620,0,,,,,,,,,,,,,,,
2622724,1501038725264,3.17,,0.03,0.0,1.15,-2,-3,6,0,1590,0,,,,,,,,,,,,,,,
2622734,1501038725274,,,,,,,,,0,1560,0,,,,,,,,,,,,,,,
2622744,1501038725284,,,,,,,,,0,1515,0,36.113644,-115.146126,0.0,5.552,2041.0,9,3,1.8,0,0.0,-1,0.0,0.0,0.0,0
2622754,1501038725291,,,,,,,,,0,1470,0,,,,,,,,,,,,,,,
2622764,1501038725301,3.18,,0.02,0.03,1.1,-2,-3,5,0,1395,0,,,,,,,,,,,,,,,
2622774,1501038725311,,,,,,,,,0,1590,0,,,,,,,,,,,,,,,
2622784,1501038725321,,,,,,,,,0,1650,0,,,,,,,,,,,,,,,
2622794,1501038725331,,,,,,,,,0,1620,0,,,,,,,,,,,,,,,
2622804,1501038725341,3.22,,0.0,0.08,1.0,-2,-2,4,0,1590,0,,,,,,,,,,,,,,,
2622814,1501038725351,,,,,,,,,0,1560,0,,,,,,,,,,,,,,,
2622824,1501038725361,,,,,,,,,0,1515,0,,,,,,,,,,,,,,,
2622834,1501038725371,,,,,,,,,0,1470,0,,,,,,,,,,,,,,,
2622844,1501038725381,3.17,,0.0,0.07,0.94,-2,-2,3,0,1395,0,36.113644,-115.146126,0.0,5.552,2041.0,9,3,1.8,0,0.0,-1,0.0,0.0,0.0,0
2622854,1501038725391,,,,,,,,,0,1560,0,,,,,,,,,,,,,,,
2622864,1501038725401,,,,,,,,,0,1620,0,,,,,,,,,,,,,,,
2622874,1501038725411,,,,,,,,,0,1605,0,,,,,,,,,,,,,,,
2622884,1501038725421,3.19,,0.01,0.1,0.87,-2,-5,2,0,1560,0,,,,,,,,,,,,,,,
2622894,1501038725431,,,,,,,,,0,1530,0,,,,,,,,,,,,,,,
2622904,1501038725441,,,,,,,,,0,1485,0,,,,,,,,,,,,,,,
2622914,1501038725451,,,,,,,,,0,1440,0,,,,,,,,,,,,,,,
2622924,1501038725461,3.19,,0.04,0.03,0.86,-2,-5,2,0,1350,0,,,,,,,,,,,,,,,
2622934,1501038725471,,,,,,,,,0,1530,0,,,,,,,,,,,,,,,
2622944,1501038725481,,,,,,,,,0,1605,0,36.113644,-115.146126,0.0,5.552,2041.0,9,3,1.8,0,0.0,-1,0.0,0.0,0.0,0
2622954,1501038725491,,,,,,,,,0,1575,0,,,,,,,,,,,,,,,
2622964,1501038725501,3.19,,0.05,0.05,0.84,-1,-7,1,0,1545,0,,,,,,,,,,,,,,,
2622974,1501038725511,,,,,,,,,0,1515,0,,,,,,,,,,,,,,,
2622984,1501038725521,,,,,,,,,0,1470,0,,,,,,,,,,,,,,,
2622994,1501038725531,,,,,,,,,0,1425,0,,,,,,,,,,,,,,,
2623004,1501038725541,3.19,,0.04,-0.01,0.84,-1,-7,-0,0,1335,0,,,,,,,,,,,,,,,
2623014,1501038725551,,,,,,,,,0,1545,0,,,,,,,,,,,,,,,
2623024,1501038725561,,,,,,,,,0,1605,0,,,,,,,,,,,,,,,
2623034,1501038725571,,,,,,,,,0,1590,0,,,,,,,,,,,,,,,
2623044,1501038725581,3.19,4.51,0.05,0.02,0.8,-1,-8,-1,0,1545,0,36.113644,-115.146126,0.0,5.552,2041.0,9,3,1.8,0,0.0,-1,0.0,0.0,0.0,0
2623054,1501038725591,,,,,,,,,0,1515,0,,,,,,,,,,,,,,,
2623064,1501038725601,,,,,,,,,0,1470,0,,,,,,,,,,,,,,,
2623074,1501038725611,,,,,,,,,0,1440,0,,,,,,,,,,,,,,,
2623084,1501038725621,3.19,,0.04,-0.02,0.8,-0,-8,-1,0,1350,0,,,,,,,,,,,,,,,
2623094,1501038725631,,,,,,,,,0,1545,0,,,,,,,,,,,,,,,
2623104,1501038725641,,,,,,,,,0,1620,0,,,,,,,,,,,,,,,
2623114,1501038725651,,,,,,,,,0,1590,0,,,,,,,,,,,,,,,
2623124,1501038725661,3.2,,0.04,-0.0,0.81,0,-8,-1,0,1545,0,,,,,,,,,,,,,,,
2623134,1501038725671,,,,,,,,,0,1515,0,,,,,,,,,,,,,,,
2623144,1501038725681,,,,,,,,,0,1485,0,36.113644,-115.146126,0.0,5.552,2041.0,9,3,1.8,0,0.0,-1,0.0,0.0,0.0,0
2623154,1501038725691,,,,,,,,,0,1440,0,,,,,,,,,,,,,,,
2623164,1501038725701,3.18,,0.03,-0.03,0.82,0,-7,0,0,1350,0,,,,,,,,,,,,,,,
2623174,1501038725711,,,,,,,,,0,1560,0,,,,,,,,,,,,,,,
