"Interval"|"ms"|0|0|1,"Utc"|"ms"|0|0|1,"Analog1"|""|0.0|5.0|25,"Battery"|"Volts"|0.0|20.0|1,"AccelX"|"G"|-3.0|3.0|25,"AccelY"|"G"|-3.0|3.0|25,"AccelZ"|"G"|-3.0|3.0|25,"Yaw"|"Deg/Sec"|-120|120|25,"Pitch"|"Deg/Sec"|-120|120|25,"Roll"|"Deg/Sec"|-120|120|25,"RPM"|""|0|10000|100,"EngineRPM"|""|0|10000|100,"AxleRpm"|""|0|10000|100,"Latitude"|"Degrees"|-180.0|180.0|10,"Longitude"|"Degrees"|-180.0|180.0|10,"Speed"|"mph"|0.0|150.0|10,"Distance"|"mi"|0.0|0.0|10,"Altitude"|"ft"|0.0|4000.0|10,"GPSSats"|""|0|20|10,"GPSQual"|""|0|5|10,"GPSDOP"|""|0.0|20.0|10,"LapCount"|""|0|0|10,"LapTime"|"Min"|0.0|0.0|10,"Sector"|""|0|0|10,"SectorTime"|"Min"|0.0|0.0|10,"PredTime"|"Min"|0.0|0.0|10,"ElapsedTime"|"Min"|0.0|0.0|10,"CurrentLap"|""|0|0|10
2908314,1501039010856,,,,,,,,,0,1590,0,,,,,,,,,,,,,,,
2908324,1501039010866,3.2,,-0.01,-0.05,1.14,-2,-8,4,0,1560,0,,,,,,,,,,,,,,,
2908334,1501039010876,,,,,,,,,0,1530,0,,,,,,,,,,,,,,,
2908344,1501039010886,,,,,,,,,0,1500,0,36.113667,-115.145653,0.0,6.191,2042.2,9,3,1.9,0,0.0,-1,0.0,0.0,0.0,0
2908354,1501039010896,,,,,,,,,0,1425,0,,,,,,,,,,,,,,,
2908364,1501039010906,3.07,,0.03,-0.05,1.25,-1,-10,4,0,1650,0,,,,,,,,,,,,,,,
2908374,1501039010916,,,,,,,,,0,1635,0,,,,,,,,,,,,,,,
2908384,1501039010926,,,,,,,,,0,1590,0,,,,,,,,,,,,,,,
2908394,1501039010936,,,,,,,,,0,1560,0,,,,,,,,,,,,,,,
2908404,1501039010946,3.1,,0.03,-0.04,1.15,0,-7,3,0,1530,0,,,,,,,,,,,,,,,
2908414,1501039010956,,,,,,,,,0,1500,0,,,,,,,,,,,,,,,
2908424,1501039010966,,,,,,,,,0,1425,0,,,,,,,,,,,,,,,
2908434,1501039010976,,,,,,,,,0,1590,0,,,,,,,,,,,,,,,
2908444,1501039010986,3.08,,0.06,-0.03,1.1,0,-4,3,0,1650,0,36.113667,-115.145653,0.0,6.191,2042.2,9,3,1.9,0,0.0,-1,0.0,0.0,0.0,0
2908454,1501039010996,,,,,,,,,0,1620,0,,,,,,,,,,,,,,,
2908464,1501039011000,,,,,,,,,0,1590,0,,,,,,,,,,,,,,,
2908474,1501039011010,,,,,,,,,0,1560,0,,,,,,,,,,,,,,,
2908484,1501039011020,3.1,,0.03,-0.04,1.01,0,-3,4,0,1530,0,,,,,,,,,,,,,,,
2908494,1501039011030,,,,,,,,,0,1500,0,,,,,,,,,,,,,,,
2908504,1501039011040,,,,,,,,,0,1425,0,,,,,,,,,,,,,,,
2908514,1501039011050,,,,,,,,,0,1590,0,,,,,,,,,,,,,,,
2908524,1501039011060,3.11,,0.04,-0.03,0.92,-0,-6,3,0,1650,0,,,,,,,,,,,,,,,
2908534,1501039011070,,,,,,,,,0,1620,0,,,,,,,,,,,,,,,
2908544,1501039011080,,,,,,,,,0,1590,0,36.113667,-115.145653,0.0,6.191,2042.2,9,3,1.9,0,0.0,-1,0.0,0.0,0.0,0
2908554,1501039011096,,,,,,,,,0,1560,0,,,,,,,,,,,,,,,
2908564,1501039011106,3.11,,0.02,-0.02,0.82,-0,-6,4,0,1530,0,,,,,,,,,,,,,,,
2908574,1501039011116,,,,,,,,,0,1500,0,,,,,,,,,,,,,,,
2908584,1501039011126,,,,,,,,,0,1425,0,,,,,,,,,,,,,,,
2908594,1501039011136,,,,,,,,,0,1665,0,,,,,,,,,,,,,,,
2908604,1501039011146,3.07,,0.03,-0.03,0.79,-0,-9,5,0,1635,0,,,,,,,,,,,,,,,
2908614,1501039011156,,,,,,,,,0,1590,0,,,,,,,,,,,,,,,
2908624,1501039011166,,,,,,,,,0,1560,0,,,,,,,,,,,,,,,
2908634,1501039011176,,,,,,,,,0,1530,0,,,,,,,,,,,,,,,
2908644,1501039011186,3.13,,0.01,-0.04,0.84,-1,-7,5,0,1500,0,36.113667,-115.145653,0.0,6.191,2042.2,9,3,1.9,0,0.0,-1,0.0,0.0,0.0,0
2908654,1501039011196,,,,,,,,,0,1425,0,,,,,,,,,,,,,,,
2908664,1501039011206,,,,,,,,,0,1590,0,,,,,,,,,,,,,,,
2908674,1501039011216,,,,,,,,,0,1650,0,,,,,,,,,,,,,,,
2908684,1501039011226,3.12,,-0.04,-0.06,0.87,-1,-5,4,0,1635,0,,,,,,,,,,,,,,,
2908694,1501039011236,,,,,,,,,0,1590,0,,,,,,,,,,,,,,,
2908704,1501039011246,,,,,,,,,0,1560,0,,,,,,,,,,,,,,,
2908714,1501039011256,,,,,,,,,0,1530,0,,,,,,,,,,,,,,,
2908724,1501039011266,3.14,,-0.03,-0.06,0.94,-1,-3,4,0,1500,0,,,,,,,,,,,,,,,
2908734,1501039011276,,,,,,,,,0,1425,0,,,,,,,,,,,,,,,
2908744,1501039011286,,,,,,,,,0,1590,0,36.113667,-115.145653,0.0,6.191,2042.2,9,3,1.9,0,0.0,-1,0.0,0.0,0.0,0
2908754,1501039011296,,,,,,,,,0,1650,0,,,,,,,,,,,,,,,
2908764,1501039011306,3.12,,-0.04,-0.07,0.92,-1,-1,4,0,1620,0,,,,,,,,,,,,,,,
2908774,1501039011316,,,,,,,,,0,1590,0,,,,,,,,,,,,,,,
2908784,1501039011326,,,,,,,,,0,1560,0,,,,,,,,,,,,,,,
2908794,1501039011336,,,,,,,,,0,1530,0,,,,,,,,,,,,,,,
2908804,1501039011346,3.17,,-0.0,-0.08,1.08,-2,-2,5,0,1500,0,,,,,,,,,,,,,,,
2908814,1501039011356,,,,,,,,,0,1410,0,,,,,,,,,,,,,,,
2908824,1501039011366,,,,,,,,,0,1575,0,,,,,,,,,,,,,,,
2908834,1501039011376,,,,,,,,,0,1620,0,,,,,,,,,,,,,,,
2908844,1501039011386,3.1,,-0.01,-0.09,1.07,-1,-0,3,0,1590,0,36.113667,-115.145653,0.0,6.191,2042.2,9,3,1.9,0,0.0,-1,0.0,0.0,0.0,0
2908854,1501039011396,,,,,,,,,0,1560,0,,,,,,,,,,,,,,,
2908864,1501039011406,,,,,,,,,0,1530,0,,,,,,,,,,,,,,,
2908874,1501039011416,,,,,,,,,0,1485,0,,,,,,,,,,,,,,,
2908884,1501039011426,3.16,,-0.03,-0.08,1.11,-0,-2,2,0,1425,0,,,,,,,,,,,,,,,
2908894,1501039011436,,,,,,,,,0,1575,0,,,,,,,,,,,,,,,
2908904,1501039011446,,,,,,,,,0,1650,0,,,,,,,,,,,,,,,
2908914,1501039011456,,,,,,,,,0,1635,0,,,,,,,,,,,,,,,
2908924,1501039011466,3.15,,-0.04,-0.03,1.1,-0,-1,2,0,1590,0,,,,,,,,,,,,,,,
2908934,1501039011476,,,,,,,,,0,1560,0,,,,,,,,,,,,,,,
2908944,1501039011486,,,,,,,,,0,1530,0,36.113667,-115.145653,0.0,6.191,2042.2,9,3,1.9,0,0.0,-1,0.0,0.0,0.0,0
2908954,1501039011496,,,,,,,,,0,1500,0,,,,,,,,,,,,,,,
2908964,1501039011506,3.14,,-0.05,-0.03,1.04,-0,-4,3,0,1410,0,,,,,,,,,,,,,,,
2908974,1501039011516,,,,,,,,,0,1575,0,,,,,,,,,,,,,,,
2908984,1501039011526,,,,,,,,,0,1650,0,,,,,,,,,,,,,,,
2908994,1501039011536,,,,,,,,,0,1620,0,,,,,,,,,,,,,,,
2909004,1501039011546,3.2,,-0.01,-0.0,1.0,-0,-7,3,0,1590,0,,,,,,,,,,,,,,,
2909014,1501039011556,,,,,,,,,0,1560,0,,,,,,,,,,,,,,,
2909024,1501039011566,,,,,,,,,0,1530,0,,,,,,,,,,,,,,,
2909034,1501039011576,,,,,,,,,0,1500,0,,,,,,,,,,,,,,,
2909044,1501039011586,3.17,4.52,-0.0,-0.01,0.91,-0,-10,3,0,1410,0,36.113667,-115.145653,0.0,6.191,2042.2,9,3,1.9,0,0.0,-1,0.0,0.0,0.0,0
2909054,1501039011595,,,,,,,,,0,1575,0,,,,,,,,,,,,,,,
2909064,1501039011605,,,,,,,,,0,1650,0,,,,,,,,,,,,,,,
2909074,1501039011615,,,,,,,,,0,1635,0,,,,,,,,,,,,,,,
2909084,1501039011625,3.12,,0.0,0.01,0.9,-1,-11,4,0,1560,0,,,,,,,,,,,,,,,
2909094,1501039011635,,,,,,,,,0,1530,0,,,,,,,,,,,,,,,
2909104,1501039011645,,,,,,,,,0,1530,0,,,,,,,,,,,,,,,
2909114,1501039011655,,,,,,,,,0,1425,0,,,,,,,,,,,,,,,
2909124,1501039011665,3.16,,-0.03,0.01,0.85,-1,-12,3,0,1590,0,,,,,,,,,,,,,,,
2909134,1501039011675,,,,,,,,,0,1650,0,,,,,,,,,,,,,,,
2909144,1501039011685,,,,,,,,,0,1635,0,36.113667,-115.145653,0.0,6.191,2042.2,9,3,1.9,0,0.0,-1,0.0,0.0,0.0,0
2909154,1501039011695,,,,,,,,,0,1590,0,,,,,,,,,,,,,,,
2909164,1501039011705,3.21,,-0.03,-0.0,0.9,-1,-10,4,0,1560,0,,,,,,,,,,,,,,,
2909174,1501039011715,,,,,,,,,0,1530,0,,,,,,,,,,,,,,,
2909184,1501039011725,,,,,,,,,0,1500,0,,,,,,,,,,,,,,,
2909194,1501039011735,,,,,,,,,0,1425,0,,,,,,,,,,,,,,,
2909204,1501039011745,3.24,,-0.05,-0.0,0.9,-2,-6,5,0,1590,0,,,,,,,,,,,,,,,
2909214,1501039011755,,,,,,,,,0,1665,0,,,,,,,,,,,,,,,
2909224,1501039011765,,,,,,,,,0,1635,0,,,,,,,,,,,,,,,
2909234,1501039011775,,,,,,,,,0,1590,0,,,,,,,,,,,,,,,
2909244,1501039011785,3.21,,-0.04,-0.05,0.99,-2,-3,5,0,1560,0,36.113667,-115.145653,0.0,6.191,2042.2,9,3,1.9,0,0.0,-1,0.0,0.0,0.0,0
2909254,1501039011795,,,,,,,,,0,1530,0,,,,,,,,,,,,,,,
2909264,1501039011805,,,,,,,,,0,1500,0,,,,,,,,,,,,,,,
2909274,1501039011815,,,,,,,,,0,1425,0,,,,,,,,,,,,,,,
2909284,1501039011825,3.25,,-0.01,-0.05,1.11,-2,-0,4,0,1575,0,,,,,,,,,,,,,,,
2909294,1501039011835,,,,,,,,,0,1650,0,,,,,,,,,,,,,,,
2909304,1501039011845,,,,,,,,,0,1620,0,,,,,,,,,,,,,,,
2909314,1501039011855,,,,,,,,,0,1590,0,,,,,,,,,,,,,,,
2909324,1501039011865,3.22,,0.01,-0.07,1.12,-2,1,3,0,1560,0,,,,,,,,,,,,,,,
2909334,1501039011875,,,,,,,,,0,1530,0,,,,,,,,,,,,,,,
2909344,1501039011885,,,,,,,,,0,1500,0,36.113667,-115.145653,0.0,6.191,2042.2,9,3,1.9,0,0.0,-1,0.0,0.0,0.0,0
2909354,1501039011895,,,,,,,,,0,1590,0,,,,,,,,,,,,,,,
2909364,1501039011905,3.23,,-0.02,-0.05,1.17,-1,1,3,0,1650,0,,,,,,,,,,,,,,,
2909374,1501039011915,,,,,,,,,0,1620,0,,,,,,,,,,,,,,,
2909384,1501039011925,,,,,,,,,0,1590,0,,,,,,,,,,,,,,,
2909394,1501039011935,,,,,,,,,0,1560,0,,,,,,,,,,,,,,,
2909404,1501039011945,3.22,,-0.03,-0.01,1.11,-1,-0,1,0,1530,0,,,,,,,,,,,,,,,
2909414,1501039011955,,,,,,,,,0,1500,0,,,,,,,,,,,,,,,
2909424,1501039011965,,,,,,,,,0,1410,0,,,,,,,,,,,,,,,
2909434,1501039011975,,,,,,,,,0,1575,0,,,,,,,,,,,,,,,
2909444,1501039011985,3.23,,-0.01,0.01,1.07,-1,-2,1,0,1650,0,36.113667,-115.145653,0.0,6.191,2042.2,9,3,2.1,0,0.0,-1,0.0,0.0,0.0,0
2909454,1501039011995,,,,,,,,,0,1620,0,,,,,,,,,,,,,,,
2909464,1501039011999,,,,,,,,,0,1590,0,,,,,,,,,,,,,,,
2909474,1501039012009,,,,,,,,,0,1560,0,,,,,,,,,,,,,,,
2909484,1501039012019,3.22,,-0.03,0.03,0.97,-0,-5,1,0,1530,0,,,,,,,,,,,,,,,
2909494,1501039012029,,,,,,,,,0,1500,0,,,,,,,,,,,,,,,
2909504,1501039012039,,,,,,,,,0,1425,0,,,,,,,,,,,,,,,
2909514,1501039012049,,,,,,,,,0,1575,0,,,,,,,,,,,,,,,
2909524,1501039012059,3.22,,-0.0,0.02,0.95,-0,-8,1,0,1650,0,,,,,,,,,,,,,,,
2909534,1501039012069,,,,,,,,,0,1620,0,,,,,,,,,,,,,,,
2909544,1501039012079,,,,,,,,,0,1590,0,36.113667,-115.145653,0.0,6.191,2042.2,9,3,2.1,0,0.0,-1,0.0,0.0,0.0,0
2909554,1501039012097,,,,,,,,,0,1560,0,,,,,,,,,,,,,,,
2909564,1501039012107,3.21,,-0.03,0.03,0.89,-1,-8,3,0,1530,0,,,,,,,,,,,,,,,
2909574,1501039012117,,,,,,,,,0,1500,0,,,,,,,,,,,,,,,
2909584,1501039012127,,,,,,,,,0,1425,0,,,,,,,,,,,,,,,
2909594,1501039012137,,,,,,,,,0,1650,0,,,,,,,,,,,,,,,
2909604,1501039012147,3.19,,-0.04,0.03,0.87,-1,-11,3,0,1620,0,,,,,,,,,,,,,,,
2909614,1501039012157,,,,,,,,,0,1590,0,,,,,,,,,,,,,,,
2909624,1501039012167,,,,,,,,,0,1560,0,,,,,,,,,,,,,,,
2909634,1501039012177,,,,,,,,,0,1530,0,,,,,,,,,,,,,,,
2909644,1501039012187,3.2,,-0.05,0.02,0.89,-2,-7,4,0,1485,0,36.113667,-115.145653,0.0,6.191,2042.2,9,3,2.1,0,0.0,-1,0.0,0.0,0.0,0
2909654,1501039012195,,,,,,,,,0,1410,0,,,,,,,,,,,,,,,
2909664,1501039012205,,,,,,,,,0,1575,0,,,,,,,,,,,,,,,
2909674,1501039012215,,,,,,,,,0,1635,0,,,,,,,,,,,,,,,
2909684,1501039012225,3.18,,-0.06,-0.02,0.88,-2,-6,4,0,1620,0,,,,,,,,,,,,,,,
2909694,1501039012235,,,,,,,,,0,1575,0,,,,,,,,,,,,,,,
2909704,1501039012245,,,,,,,,,0,1545,0,,,,,,,,,,,,,,,
2909714,1501039012255,,,,,,,,,0,1515,0,,,,,,,,,,,,,,,
2909724,1501039012265,3.19,,-0.03,-0.03,0.96,-2,-2,3,0,1485,0,,,,,,,,,,,,,,,
2909734,1501039012275,,,,,,,,,0,1410,0,,,,,,,,,,,,,,,
2909744,1501039012285,,,,,,,,,0,1575,0,36.113667,-115.145653,0.0,6.191,2042.2,9,3,1.9,0,0.0,-1,0.0,0.0,0.0,0
2909754,1501039012295,,,,,,,,,0,1650,0,,,,,,,,,,,,,,,
2909764,1501039012305,3.18,,-0.05,-0.05,0.95,-2,1,3,0,1620,0,,,,,,,,,,,,,,,
2909774,1501039012315,,,,,,,,,0,1590,0,,,,,,,,,,,,,,,
2909784,1501039012325,,,,,,,,,0,1560,0,,,,,,,,,,,,,,,
2909794,1501039012335,,,,,,,,,0,1530,0,,,,,,,,,,,,,,,
2909804,1501039012345,3.2,,0.0,-0.07,1.11,-2,-0,5,0,1485,0,,,,,,,,,,,,,,,
2909814,1501039012355,,,,,,,,,0,1410,0,,,,,,,,,,,,,,,
2909824,1501039012365,,,,,,,,,0,1575,0,,,,,,,,,,,,,,,
2909834,1501039012375,,,,,,,,,0,1650,0,,,,,,,,,,,,,,,
2909844,1501039012385,3.14,,-0.01,-0.07,1.09,-2,1,4,0,1590,0,36.113667,-115.145653,0.0,6.191,2042.2,9,3,1.9,0,0.0,-1,0.0,0.0,0.0,0
2909854,1501039012397,,,,,,,,,0,1560,0,,,,,,,,,,,,,,,
2909864,1501039012407,,,,,,,,,0,1530,0,,,,,,,,,,,,,,,
2909874,1501039012417,,,,,,,,,0,1530,0,,,,,,,,,,,,,,,
2909884,1501039012427,3.14,,-0.03,-0.06,1.13,-2,-2,3,0,1410,0,,,,,,,,,,,,,,,
2909894,1501039012437,,,,,,,,,0,1575,0,,,,,,,,,,,,,,,
2909904,1501039012447,,,,,,,,,0,1650,0,,,,,,,,,,,,,,,
2909914,1501039012457,,,,,,,,,0,1620,0,,,,,,,,,,,,,,,
2909924,1501039012467,3.2,,-0.04,-0.01,1.12,-1,-1,3,0,1590,0,,,,,,,,,,,,,,,
2909934,1501039012477,,,,,,,,,0,1560,0,,,,,,,,,,,,,,,
2909944,1501039012487,,,,,,,,,0,1530,0,36.113667,-115.145653,0.0,6.191,2042.2,9,3,1.9,0,0.0,-1,0.0,0.0,0.0,0
2909954,1501039012495,,,,,,,,,0,1500,0,,,,,,,,,,,,,,,
2909964,1501039012505,3.17,,-0.04,-0.02,1.04,-1,-3,3,0,1410,0,,,,,,,,,,,,,,,
2909974,1501039012515,,,,,,,,,0,1575,0,,,,,,,,,,,,,,,
2909984,1501039012525,,,,,,,,,0,1650,0,,,,,,,,,,,,,,,
2909994,1501039012535,,,,,,,,,0,1620,0,,,,,,,,,,,,,,,
2910004,1501039012545,3.21,,-0.02,0.02,0.98,-1,-6,3,0,1590,0,,,,,,,,,,,,,,,
2910014,1501039012555,,,,,,,,,0,1560,0,,,,,,,,,,,,,,,
2910024,1501039012565,,,,,,,,,0,1530,0,,,,,,,,,,,,,,,
2910034,1501039012575,,,,,,,,,0,1500,0,,,,,,,,,,,,,,,
2910044,1501039012585,3.15,4.49,-0.0,-0.0,0.88,-0,-9,3,0,1425,0,36.113667,-115.145653,0.0,6.191,2042.2,9,3,1.9,0,0.0,-1,0.0,0.0,0.0,0
2910054,1501039012592,,,,,,,,,0,1575,0,,,,,,,,,,,,,,,
2910064,1501039012602,,,,,,,,,0,1650,0,,,,,,,,,,,,,,,
2910074,1501039012612,,,,,,,,,0,1635,0,,,,,,,,,,,,,,,
2910084,1501039012622,3.19,,0.0,0.01,0.86,-1,-11,3,0,1590,0,,,,,,,,,,,,,,,
2910094,1501039012632,,,,,,,,,0,1560,0,,,,,,,,,,,,,,,
2910104,1501039012642,,,,,,,,,0,1530,0,,,,,,,,,,,,,,,
2910114,1501039012652,,,,,,,,,0,1500,0,,,,,,,,,,,,,,,
2910124,1501039012662,3.12,,-0.02,0.02,0.8,-1,-12,2,0,1575,0,,,,,,,,,,,,,,,
2910134,1501039012672,,,,,,,,,0,1650,0,,,,,,,,,,,,,,,
2910144,1501039012682,,,,,,,,,0,1620,0,36.113667,-115.145653,0.0,6.191,2042.2,9,3,1.9,0,0.0,-1,0.0,0.0,0.0,0
2910154,1501039012696,,,,,,,,,0,1590,0,,,,,,,,,,,,,,,
2910164,1501039012706,3.19,,-0.02,0.01,0.85,-2,-11,4,0,1560,0,,,,,,,,,,,,,,,
2910174,1501039012716,,,,,,,,,0,1530,0,,,,,,,,,,,,,,,
2910184,1501039012726,,,,,,,,,0,1500,0,,,,,,,,,,,,,,,
2910194,1501039012736,,,,,,,,,0,1410,0,,,,,,,,,,,,,,,
2910204,1501039012746,3.21,,-0.04,0.01,0.83,-2,-7,6,0,1575,0,,,,,,,,,,,,,,,
2910214,1501039012756,,,,,,,,,0,1650,0,,,,,,,,,,,,,,,
2910224,1501039012766,,,,,,,,,0,1620,0,,,,,,,,,,,,,,,
2910234,1501039012776,,,,,,,,,0,1590,0,,,,,,,,,,,,,,,
2910244,1501039012786,3.19,,-0.04,-0.04,0.92,-2,-4,4,0,1560,0,36.113667,-115.145653,0.0,6.191,2042.2,9,3,1.9,0,0.0,-1,0.0,0.0,0.0,0
2910254,1501039012796,,,,,,,,,0,1515,0,,,,,,,,,,,,,,,
2910264,1501039012806,,,,,,,,,0,1500,0,,,,,,,,,,,,,,,
2910274,1501039012816,,,,,,,,,0,1410,0,,,,,,,,,,,,,,,
2910284,1501039012826,3.21,,-0.0,-0.02,0.92,-3,-1,5,0,1590,0,,,,,,,,,,,,,,,
2910294,1501039012836,,,,,,,,,0,1650,0,,,,,,,,,,,,,,,
2910304,1501039012846,,,,,,,,,0,1635,0,,,,,,,,,,,,,,,
2910314,1501039012856,,,,,,,,,0,1590,0,,,,,,,,,,,,,,,
2910324,1501039012866,3.19,,0.01,-0.08,1.01,-2,1,4,0,1560,0,,,,,,,,,,,,,,,
2910334,1501039012876,,,,,,,,,0,1530,0,,,,,,,,,,,,,,,
2910344,1501039012886,,,,,,,,,0,1500,0,36.113667,-115.145653,0.0,6.191,2042.2,9,3,1.9,0,0.0,-1,0.0,0.0,0.0,0
2910354,1501039012894,,,,,,,,,0,1425,0,,,,,,,,,,,,,,,
2910364,1501039012904,3.16,,0.01,-0.07,1.11,-3,1,5,0,1650,0,,,,,,,,,,,,,,,
2910374,1501039012914,,,,,,,,,0,1620,0,,,,,,,,,,,,,,,
2910384,1501039012924,,,,,,,,,0,1590,0,,,,,,,,,,,,,,,
2910394,1501039012934,,,,,,,,,0,1560,0,,,,,,,,,,,,,,,
2910404,1501039012944,3.2,,0.01,-0.06,1.06,-2,-1,3,0,1530,0,,,,,,,,,,,,,,,
2910414,1501039012954,,,,,,,,,0,1485,0,,,,,,,,,,,,,,,
2910424,1501039012964,,,,,,,,,0,1410,0,,,,,,,,,,,,,,,
2910434,1501039012974,,,,,,,,,0,1575,0,,,,,,,,,,,,,,,
2910444,1501039012984,3.2,,-0.0,-0.04,1.1,-1,-1,2,0,1650,0,36.113667,-115.145653,0.0,6.191,2042.2,9,3,1.9,0,0.0,-1,0.0,0.0,0.0,0
2910454,1501039012994,,,,,,,,,0,1620,0,,,,,,,,,,,,,,,
2910464,1501039013000,,,,,,,,,0,1590,0,,,,,,,,,,,,,,,
2910474,1501039013010,,,,,,,,,0,1560,0,,,,,,,,,,,,,,,
2910484,1501039013020,3.21,,-0.04,0.01,1.03,-0,-4,2,0,1515,0,,,,,,,,,,,,,,,
2910494,1501039013030,,,,,,,,,0,1485,0,,,,,,,,,,,,,,,
2910504,1501039013040,,,,,,,,,0,1410,0,,,,,,,,,,,,,,,
2910514,1501039013050,,,,,,,,,0,1575,0,,,,,,,,,,,,,,,
2910524,1501039013060,3.21,,-0.01,0.0,1.02,-0,-7,2,0,1650,0,,,,,,,,,,,,,,,
2910534,1501039013070,,,,,,,,,0,1620,0,,,,,,,,,,,,,,,
2910544,1501039013080,,,,,,,,,0,1590,0,36.113667,-115.145653,0.0,6.191,2042.2,9,3,1.9,0,0.0,-1,0.0,0.0,0.0,0
2910554,1501039013096,,,,,,,,,0,1545,0,,,,,,,,,,,,,,,
2910564,1501039013106,3.18,,-0.02,0.03,0.94,-0,-8,3,0,1515,0,,,,,,,,,,,,,,,
2910574,1501039013116,,,,,,,,,0,1485,0,,,,,,,,,,,,,,,
2910584,1501039013126,,,,,,,,,0,1410,0,,,,,,,,,,,,,,,
2910594,1501039013136,,,,,,,,,0,1575,0,,,,,,,,,,,,,,,
2910604,1501039013146,3.18,,0.01,0.02,0.93,-1,-12,3,0,1650,0,,,,,,,,,,,,,,,
2910614,1501039013156,,,,,,,,,0,1620,0,,,,,,,,,,,,,,,
2910624,1501039013166,,,,,,,,,0,1545,0,,,,,,,,,,,,,,,
2910634,1501039013176,,,,,,,,,0,1545,0,,,,,,,,,,,,,,,
2910644,1501039013186,3.19,,-0.02,0.02,0.9,-1,-10,4,0,1515,0,36.113667,-115.145653,0.0,6.191,2042.2,9,3,1.9,0,0.0,-1,0.0,0.0,0.0,0
2910654,1501039013196,,,,,,,,,0,1485,0,,,,,,,,,,,,,,,
2910664,1501039013206,,,,,,,,,0,1560,0,,,,,,,,,,,,,,,
2910674,1501039013216,,,,,,,,,0,1650,0,,,,,,,,,,,,,,,
2910684,1501039013226,3.18,,-0.03,0.01,0.91,-1,-11,3,0,1605,0,,,,,,,,,,,,,,,
2910694,1501039013236,,,,,,,,,0,1575,0,,,,,,,,,,,,,,,
2910704,1501039013246,,,,,,,,,0,1545,0,,,,,,,,,,,,,,,
2910714,1501039013256,,,,,,,,,0,1515,0,,,,,,,,,,,,,,,
2910724,1501039013266,3.18,,-0.03,-0.01,0.94,-2,-7,4,0,1485,0,,,,,,,,,,,,,,,
2910734,1501039013276,,,,,,,,,0,1395,0,,,,,,,,,,,,,,,
2910744,1501039013286,,,,,,,,,0,1560,0,36.113667,-115.145653,0.0,6.191,2042.2,9,3,1.9,0,0.0,-1,0.0,0.0,0.0,0
2910754,1501039013296,,,,,,,,,0,1635,0,,,,,,,,,,,,,,,
2910764,1501039013306,3.18,,-0.05,-0.04,0.92,-1,-5,4,0,1605,0,,,,,,,,,,,,,,,
2910774,1501039013316,,,,,,,,,0,1575,0,,,,,,,,,,,,,,,
2910784,1501039013326,,,,,,,,,0,1545,0,,,,,,,,,,,,,,,
2910794,1501039013336,,,,,,,,,0,1500,0,,,,,,,,,,,,,,,
2910804,1501039013346,3.19,,-0.03,-0.04,0.98,-2,-1,4,0,1470,0,,,,,,,,,,,,,,,
2910814,1501039013356,,,,,,,,,0,1395,0,,,,,,,,,,,,,,,
2910824,1501039013366,,,,,,,,,0,1560,0,,,,,,,,,,,,,,,
2910834,1501039013376,,,,,,,,,0,1635,0,,,,,,,,,,,,,,,
2910844,1501039013386,3.18,,-0.05,-0.05,0.98,-2,1,5,0,1605,0,36.113667,-115.145653,0.0,6.191,2042.2,9,3,1.9,0,0.0,-1,0.0,0.0,0.0,0
2910854,1501039013396,,,,,,,,,0,1560,0,,,,,,,,,,,,,,,
2910864,1501039013406,,,,,,,,,0,1545,0,,,,,,,,,,,,,,,
2910874,1501039013416,,,,,,,,,0,1500,0,,,,,,,,,,,,,,,
2910884,1501039013426,3.21,,0.01,-0.06,1.12,-3,1,5,0,1470,0,,,,,,,,,,,,,,,
2910894,1501039013436,,,,,,,,,0,1380,0,,,,,,,,,,,,,,,
2910904,1501039013446,,,,,,,,,0,1560,0,,,,,,,,,,,,,,,
2910914,1501039013456,,,,,,,,,0,1635,0,,,,,,,,,,,,,,,
2910924,1501039013466,3.18,,0.0,-0.07,1.09,-3,3,5,0,1605,0,,,,,,,,,,,,,,,
2910934,1501039013476,,,,,,,,,0,1575,0,,,,,,,,,,,,,,,
2910944,1501039013486,,,,,,,,,0,1530,0,36.113667,-115.145653,0.0,6.191,2042.2,9,3,1.9,0,0.0,-1,0.0,0.0,0.0,0
2910954,1501039013496,,,,,,,,,0,1500,0,,,,,,,,,,,,,,,
2910964,1501039013506,3.21,,0.06,-0.09,1.2,-2,0,4,0,1470,0,,,,,,,,,,,,,,,
2910974,1501039013516,,,,,,,,,0,1380,0,,,,,,,,,,,,,,,
2910984,1501039013526,,,,,,,,,0,1545,0,,,,,,,,,,,,,,,
2910994,1501039013536,,,,,,,,,0,1635,0,,,,,,,,,,,,,,,
2911004,1501039013546,3.2,,0.03,-0.1,1.19,-2,2,2,0,1605,0,,,,,,,,,,,,,,,
2911014,1501039013556,,,,,,,,,0,1560,0,,,,,,,,,,,,,,,
2911024,1501039013566,,,,,,,,,0,1530,0,,,,,,,,,,,,,,,
2911034,1501039013576,,,,,,,,,0,1500,0,,,,,,,,,,,,,,,
2911044,1501039013586,3.2,4.49,0.02,-0.08,1.24,-1,-1,1,0,1455,0,36.113667,-115.145653,0.0,6.191,2042.2,9,3,1.9,0,0.0,-1,0.0,0.0,0.0,0
2911054,1501039013595,,,,,,,,,0,1365,0,,,,,,,,,,,,,,,
2911064,1501039013605,,,,,,,,,0,1620,0,,,,,,,,,,,,,,,
2911074,1501039013615,,,,,,,,,0,1590,0,,,,,,,,,,,,,,,
2911084,1501039013625,3.15,,-0.01,-0.04,1.21,-0,0,1,0,1545,0,,,,,,,,,,,,,,,
2911094,1501039013635,,,,,,,,,0,1515,0,,,,,,,,,,,,,,,
2911104,1501039013645,,,,,,,,,0,1470,0,,,,,,,,,,,,,,,
2911114,1501039013655,,,,,,,,,0,1470,0,,,,,,,,,,,,,,,
2911124,1501039013665,3.2,,-0.06,-0.02,1.19,0,-3,1,0,1425,0,,,,,,,,,,,,,,,
2911134,1501039013675,,,,,,,,,0,1515,0,,,,,,,,,,,,,,,
2911144,1501039013685,,,,,,,,,0,1605,0,36.113667,-115.145653,0.0,6.191,2042.2,9,3,1.9,0,0.0,-1,0.0,0.0,0.0,0
2911154,1501039013695,,,,,,,,,0,1560,0,,,,,,,,,,,,,,,
2911164,1501039013705,3.15,,-0.07,0.03,1.16,0,-2,2,0,1530,0,,,,,,,,,,,,,,,
2911174,1501039013715,,,,,,,,,0,1485,0,,,,,,,,,,,,,,,
2911184,1501039013725,,,,,,,,,0,1485,0,,,,,,,,,,,,,,,
2911194,1501039013735,,,,,,,,,0,1440,0,,,,,,,,,,,,,,,
2911204,1501039013745,3.21,,-0.1,0.04,1.17,0,-4,3,0,1410,0,,,,,,,,,,,,,,,
2911214,1501039013755,,,,,,,,,0,1290,0,,,,,,,,,,,,,,,
2911224,1501039013765,,,,,,,,,0,1485,0,,,,,,,,,,,,,,,
2911234,1501039013775,,,,,,,,,0,1575,0,,,,,,,,,,,,,,,
2911244,1501039013785,3.19,,-0.11,0.07,1.15,0,-4,2,0,1545,0,36.113667,-115.145653,0.0,6.191,2042.2,9,3,1.9,0,0.0,-1,0.0,0.0,0.0,0
2911254,1501039013795,,,,,,,,,0,1485,0,,,,,,,,,,,,,,,
2911264,1501039013805,,,,,,,,,0,1440,0,,,,,,,,,,,,,,,
2911274,1501039013815,,,,,,,,,0,1395,0,,,,,,,,,,,,,,,
2911284,1501039013825,3.22,,-0.06,0.07,1.1,0,-6,2,0,1335,0,,,,,,,,,,,,,,,
2911294,1501039013835,,,,,,,,,0,1215,0,,,,,,,,,,,,,,,
2911304,1501039013845,,,,,,,,,0,1425,0,,,,,,,,,,,,,,,
2911314,1501039013855,,,,,,,,,0,1515,0,,,,,,,,,,,,,,,
2911324,1501039013865,3.18,,-0.06,0.06,1.09,-0,-6,4,0,1470,0,,,,,,,,,,,,,,,
2911334,1501039013875,,,,,,,,,0,1425,0,,,,,,,,,,,,,,,
2911344,1501039013885,,,,,,,,,0,1365,0,36.113667,-115.145653,0.0,6.191,2042.2,9,3,1.9,0,0.0,-1,0.0,0.0,0.0,0
2911354,1501039013895,,,,,,,,,0,1365,0,,,,,,,,,,,,,,,
2911364,1501039013905,3.19,,-0.05,0.05,1.09,-1,-5,4,0,1320,0,,,,,,,,,,,,,,,
2911374,1501039013915,,,,,,,,,0,1275,0,,,,,,,,,,,,,,,
2911384,1501039013925,,,,,,,,,0,1140,0,,,,,,,,,,,,,,,
2911394,1501039013935,,,,,,,,,0,1380,0,,,,,,,,,,,,,,,
2911404,1501039013945,3.22,,-0.03,0.06,1.03,-1,-8,5,0,1485,0,,,,,,,,,,,,,,,
2911414,1501039013955,,,,,,,,,0,1455,0,,,,,,,,,,,,,,,
2911424,1501039013965,,,,,,,,,0,1410,0,,,,,,,,,,,,,,,
2911434,1501039013975,,,,,,,,,0,1365,0,,,,,,,,,,,,,,,
2911444,1501039013985,3.15,,-0.04,0.05,0.96,-1,-10,5,0,1320,0,36.113667,-115.145653,0.0,6.191,2042.2,9,3,1.9,0,0.0,-1,0.0,0.0,0.0,0
2911454,1501039013995,,,,,,,,,0,1320,0,,,,,,,,,,,,,,,
2911464,1501039013999,,,,,,,,,0,1275,0,,,,,,,,,,,,,,,
2911474,1501039014009,,,,,,,,,0,1155,0,,,,,,,,,,,,,,,
2911484,1501039014019,3.19,,-0.07,0.02,1.04,-1,-5,6,0,1395,0,,,,,,,,,,,,,,,
2911494,1501039014029,,,,,,,,,0,1500,0,,,,,,,,,,,,,,,
2911504,1501039014039,,,,,,,,,0,1485,0,,,,,,,,,,,,,,,
2911514,1501039014049,,,,,,,,,0,1425,0,,,,,,,,,,,,,,,
2911524,1501039014059,3.19,,-0.05,-0.01,1.13,-1,-3,5,0,1380,0,,,,,,,,,,,,,,,
2911534,1501039014069,,,,,,,,,0,1350,0,,,,,,,,,,,,,,,
2911544,1501039014079,,,,,,,,,0,1290,0,36.113667,-115.145653,0.0,6.191,2042.2,9,3,2.0,0,0.0,-1,0.0,0.0,0.0,0
2911554,1501039014097,,,,,,,,,0,1290,0,,,,,,,,,,,,,,,
2911564,1501039014107,3.18,,-0.06,0.02,1.06,-0,-5,3,0,1410,0,,,,,,,,,,,,,,,
2911574,1501039014117,,,,,,,,,0,1530,0,,,,,,,,,,,,,,,
2911584,1501039014127,,,,,,,,,0,1500,0,,,,,,,,,,,,,,,
2911594,1501039014137,,,,,,,,,0,1500,0,,,,,,,,,,,,,,,
2911604,1501039014147,3.21,,-0.06,-0.0,1.05,-0,-6,4,0,1455,0,,,,,,,,,,,,,,,
2911614,1501039014157,,,,,,,,,0,1410,0,,,,,,,,,,,,,,,
2911624,1501039014167,,,,,,,,,0,1365,0,,,,,,,,,,,,,,,
2911634,1501039014177,,,,,,,,,0,1320,0,,,,,,,,,,,,,,,
2911644,1501039014187,3.18,,-0.05,-0.03,1.03,-1,-4,5,0,1200,0,36.113667,-115.145653,0.0,6.191,2042.2,9,3,2.0,0,0.0,-1,0.0,0.0,0.0,0
2911654,1501039014197,,,,,,,,,0,1440,0,,,,,,,,,,,,,,,
2911664,1501039014207,,,,,,,,,0,1560,0,,,,,,,,,,,,,,,
2911674,1501039014217,,,,,,,,,0,1530,0,,,,,,,,,,,,,,,
2911684,1501039014227,3.22,,-0.03,-0.02,1.01,-1,-7,3,0,1470,0,,,,,,,,,,,,,,,
2911694,1501039014237,,,,,,,,,0,1440,0,,,,,,,,,,,,,,,
2911704,1501039014247,,,,,,,,,0,1395,0,,,,,,,,,,,,,,,
2911714,1501039014257,,,,,,,,,0,1350,0,,,,,,,,,,,,,,,
2911724,1501039014267,3.14,,-0.06,-0.02,1.0,-0,-7,2,0,1245,0,,,,,,,,,,,,,,,
2911734,1501039014277,,,,,,,,,0,1485,0,,,,,,,,,,,,,,,
2911744,1501039014287,,,,,,,,,0,1590,0,36.113667,-115.145653,0.0,6.191,2042.2,9,3,2.0,0,0.0,-1,0.0,0.0,0.0,0
2911754,1501039014297,,,,,,,,,0,1560,0,,,,,,,,,,,,,,,
2911764,1501039014307,3.18,,-0.05,-0.01,1.0,-0,-6,2,0,1515,0,,,,,,,,,,,,,,,
2911774,1501039014317,,,,,,,,,0,1470,0,,,,,,,,,,,,,,,
2911784,1501039014327,,,,,,,,,0,1440,0,,,,,,,,,,,,,,,
2911794,1501039014337,,,,,,,,,0,1440,0,,,,,,,,,,,,,,,
2911804,1501039014347,3.21,,-0.08,-0.0,1.03,-1,-7,3,0,1395,0,,,,,,,,,,,,,,,
2911814,1501039014357,,,,,,,,,0,1275,0,,,,,,,,,,,,,,,
2911824,1501039014367,,,,,,,,,0,1620,0,,,,,,,,,,,,,,,
2911834,1501039014377,,,,,,,,,0,1590,0,,,,,,,,,,,,,,,
2911844,1501039014387,3.13,,-0.09,0.01,1.03,-1,-6,4,0,1545,0,36.113667,-115.145653,0.0,6.191,2042.2,9,3,2.0,0,0.0,-1,0.0,0.0,0.0,0
2911854,1501039014397,,,,,,,,,0,1515,0,,,,,,,,,,,,,,,
2911864,1501039014407,,,,,,,,,0,1470,0,,,,,,,,,,,,,,,
2911874,1501039014417,,,,,,,,,0,1470,0,,,,,,,,,,,,,,,
2911884,1501039014427,3.21,,-0.12,0.04,1.05,-1,-7,5,0,1425,0,,,,,,,,,,,,,,,
2911894,1501039014437,,,,,,,,,0,1560,0,,,,,,,,,,,,,,,
2911904,1501039014447,,,,,,,,,0,1650,0,,,,,,,,,,,,,,,
2911914,1501039014457,,,,,,,,,0,1620,0,,,,,,,,,,,,,,,
2911924,1501039014467,3.18,,-0.13,0.06,1.08,-1,-6,6,0,1575,0,,,,,,,,,,,,,,,
2911934,1501039014477,,,,,,,,,0,1545,0,,,,,,,,,,,,,,,
2911944,1501039014487,,,,,,,,,0,1515,0,36.113667,-115.145653,0.0,6.191,2042.2,9,3,2.0,0,0.0,-1,0.0,0.0,0.0,0
2911954,1501039014497,,,,,,,,,0,1470,0,,,,,,,,,,,,,,,
2911964,1501039014507,3.19,,-0.16,0.06,1.07,-0,-7,5,0,1365,0,,,,,,,,,,,,,,,
2911974,1501039014517,,,,,,,,,0,1575,0,,,,,,,,,,,,,,,
2911984,1501039014527,,,,,,,,,0,1680,0,,,,,,,,,,,,,,,
2911994,1501039014537,,,,,,,,,0,1650,0,,,,,,,,,,,,,,,
2912004,1501039014547,3.2,,-0.13,0.07,1.0,0,-9,2,0,1605,0,,,,,,,,,,,,,,,
2912014,1501039014557,,,,,,,,,0,1575,0,,,,,,,,,,,,,,,
2912024,1501039014567,,,,,,,,,0,1530,0,,,,,,,,,,,,,,,
2912034,1501039014577,,,,,,,,,0,1485,0,,,,,,,,,,,,,,,
2912044,1501039014587,3.17,4.51,-0.11,0.04,0.92,0,-11,3,0,1410,0,36.113667,-115.145653,0.0,6.191,2042.2,9,3,2.0,0,0.0,-1,0.0,0.0,0.0,0
2912054,1501039014596,,,,,,,,,0,1590,0,,,,,,,,,,,,,,,
2912064,1501039014606,,,,,,,,,0,1665,0,,,,,,,,,,,,,,,
2912074,1501039014616,,,,,,,,,0,1650,0,,,,,,,,,,,,,,,
2912084,1501039014626,3.19,,-0.08,0.07,0.85,0,-13,4,0,1590,0,,,,,,,,,,,,,,,
2912094,1501039014636,,,,,,,,,0,1575,0,,,,,,,,,,,,,,,
2912104,1501039014646,,,,,,,,,0,1530,0,,,,,,,,,,,,,,,
2912114,1501039014656,,,,,,,,,0,1485,0,,,,,,,,,,,,,,,
2912124,1501039014666,3.17,,-0.05,0.05,0.78,-0,-15,3,0,1395,0,,,,,,,,,,,,,,,
2912134,1501039014676,,,,,,,,,0,1575,0,,,,,,,,,,,,,,,
2912144,1501039014686,,,,,,,,,0,1620,0,36.113667,-115.145653,0.0,6.191,2042.2,9,3,2.0,0,0.0,-1,0.0,0.0,0.0,0
2912154,1501039014696,,,,,,,,,0,1575,0,,,,,,,,,,,,,,,
2912164,1501039014706,3.12,,-0.02,0.06,0.79,-1,-16,3,0,1530,0,,,,,,,,,,,,,,,
2912174,1501039014716,,,,,,,,,0,1500,0,,,,,,,,,,,,,,,
2912184,1501039014726,,,,,,,,,0,1500,0,,,,,,,,,,,,,,,
2912194,1501039014736,,,,,,,,,0,1455,0,,,,,,,,,,,,,,,
2912204,1501039014746,3.16,,-0.01,0.05,0.79,-1,-15,3,0,1530,0,,,,,,,,,,,,,,,
2912214,1501039014756,,,,,,,,,0,1620,0,,,,,,,,,,,,,,,
2912224,1501039014766,,,,,,,,,0,1575,0,,,,,,,,,,,,,,,
2912234,1501039014776,,,,,,,,,0,1545,0,,,,,,,,,,,,,,,
2912244,1501039014786,3.15,,0.06,0.05,0.86,-1,-14,3,0,1485,0,36.113667,-115.145653,0.0,6.191,2042.2,9,3,2.0,0,0.0,-1,0.0,0.0,0.0,0
2912254,1501039014796,,,,,,,,,0,1485,0,,,,,,,,,,,,,,,
2912264,1501039014806,,,,,,,,,0,1440,0,,,,,,,,,,,,,,,
2912274,1501039014816,,,,,,,,,0,1365,0,,,,,,,,,,,,,,,
2912284,1501039014826,3.13,,0.18,0.04,0.9,-1,-16,2,0,1245,0,,,,,,,,,,,,,,,
2912294,1501039014836,,,,,,,,,0,1440,0,,,,,,,,,,,,,,,
2912304,1501039014846,,,,,,,,,0,1530,0,,,,,,,,,,,,,,,
2912314,1501039014856,,,,,,,,,0,1500,0,,,,,,,,,,,,,,,
2912324,1501039014866,3.13,,0.22,0.08,0.82,-1,-17,4,0,1455,0,,,,,,,,,,,,,,,
2912334,1501039014876,,,,,,,,,0,1425,0,,,,,,,,,,,,,,,
2912344,1501039014886,,,,,,,,,0,1380,0,36.113667,-115.145653,0.0,6.191,2042.2,9,3,2.0,0,0.0,-1,0.0,0.0,0.0,0
2912354,1501039014896,,,,,,,,,0,1350,0,,,,,,,,,,,,,,,
2912364,1501039014900,3.16,,0.23,0.02,0.81,-2,-17,4,0,1230,450,,,,,,,,,,,,,,,
2912374,1501039014910,,,,,,,,,0,1395,450,,,,,,,,,,,,,,,
2912384,1501039014920,,,,,,,,,0,1500,450,,,,,,,,,,,,,,,
2912394,1501039014930,,,,,,,,,0,1470,450,,,,,,,,,,,,,,,
2912404,1501039014940,3.19,,0.29,0.07,0.81,-2,-17,4,0,1425,450,,,,,,,,,,,,,,,
2912414,1501039014950,,,,,,,,,0,1380,450,,,,,,,,,,,,,,,
2912424,1501039014960,,,,,,,,,0,1380,450,,,,,,,,,,,,,,,
2912434,1501039014970,,,,,,,,,0,1365,450,,,,,,,,,,,,,,,
2912444,1501039014980,3.2,,0.3,0.06,0.78,-2,-19,6,0,1305,450,36.113667,-115.145653,0.0,6.191,2042.2,9,3,2.0,0,0.0,-1,0.0,0.0,0.0,0
2912454,1501039014990,,,,,,,,,0,1200,450,,,,,,,,,,,,,,,
2912464,1501039015000,,,,,,,,,0,1410,450,,,,,,,,,,,,,,,
2912474,1501039015010,,,,,,,,,0,1515,450,,,,,,,,,,,,,,,
2912484,1501039015020,3.2,,0.33,0.03,0.81,-2,-17,5,0,1485,450,,,,,,,,,,,,,,,
2912494,1501039015030,,,,,,,,,0,1440,450,,,,,,,,,,,,,,,
2912504,1501039015040,,,,,,,,,0,1410,450,,,,,,,,,,,,,,,
2912514,1501039015050,,,,,,,,,0,1365,0,,,,,,,,,,,,,,,
2912524,1501039015060,3.14,,0.37,0.02,0.87,-1,-14,5,0,1320,0,,,,,,,,,,,,,,,
2912534,1501039015070,,,,,,,,,0,1215,0,,,,,,,,,,,,,,,
2912544,1501039015080,,,,,,,,,0,1440,0,36.113667,-115.145653,0.0,6.191,2042.2,9,3,1.1,0,0.0,-1,0.0,0.0,0.0,0
2912554,1501039015094,,,,,,,,,0,1560,0,,,,,,,,,,,,,,,
2912564,1501039015104,3.08,,0.36,0.05,0.88,-1,-14,4,0,1545,0,,,,,,,,,,,,,,,
2912574,1501039015114,,,,,,,,,0,1500,0,,,,,,,,,,,,,,,
2912584,1501039015124,,,,,,,,,0,1470,190,,,,,,,,,,,,,,,
2912594,1501039015134,,,,,,,,,0,1455,190,,,,,,,,,,,,,,,
2912604,1501039015144,3.17,,0.34,0.02,0.89,-1,-8,5,0,1455,190,,,,,,,,,,,,,,,
2912614,1501039015154,,,,,,,,,0,1425,190,,,,,,,,,,,,,,,
2912624,1501039015164,,,,,,,,,0,1560,190,,,,,,,,,,,,,,,
2912634,1501039015174,,,,,,,,,0,1680,190,,,,,,,,,,,,,,,
2912644,1501039015184,3.18,,0.31,0.02,0.84,-1,-8,4,0,1665,190,36.113667,-115.145653,0.0,6.191,2042.2,9,3,1.1,0,0.0,-1,0.0,0.0,0.0,0
2912654,1501039015196,,,,,,,,,0,1635,190,,,,,,,,,,,,,,,
2912664,1501039015206,,,,,,,,,0,1620,190,,,,,,,,,,,,,,,
2912674,1501039015216,,,,,,,,,0,1605,190,,,,,,,,,,,,,,,
2912684,1501039015226,3.21,,0.26,0.01,0.76,-0,-6,2,0,1575,10000000,,,,,,,,,,,,,,,
2912694,1501039015236,,,,,,,,,0,1500,0,,,,,,,,,,,,,,,
2912704,1501039015246,,,,,,,,,0,1725,0,,,,,,,,,,,,,,,
2912714,1501039015256,,,,,,,,,0,1830,0,,,,,,,,,,,,,,,
2912724,1501039015266,3.14,,0.21,0.02,0.72,-1,-6,2,0,1800,0,,,,,,,,,,,,,,,
2912734,1501039015276,,,,,,,,,0,1785,0,,,,,,,,,,,,,,,
2912744,1501039015286,,,,,,,,,0,1770,120,36.113667,-115.145653,0.0,6.191,2042.2,9,3,1.1,0,0.0,-1,0.0,0.0,0.0,0
2912754,1501039015296,,,,,,,,,0,1740,120,,,,,,,,,,,,,,,
2912764,1501039015306,3.17,,0.26,0.05,0.74,-1,-8,2,0,1875,120,,,,,,,,,,,,,,,
2912774,1501039015316,,,,,,,,,0,1980,120,,,,,,,,,,,,,,,
2912784,1501039015326,,,,,,,,,0,1965,120,,,,,,,,,,,,,,,
2912794,1501039015336,,,,,,,,,0,1920,120,,,,,,,,,,,,,,,
2912804,1501039015346,3.19,,0.25,0.05,0.74,-1,-6,1,0,1905,120,,,,,,,,,,,,,,,
2912814,1501039015356,,,,,,,,,0,1890,120,,,,,,,,,,,,,,,
2912824,1501039015366,,,,,,,,,0,1800,120,,,,,,,,,,,,,,,
2912834,1501039015376,,,,,,,,,0,2085,120,,,,,,,,,,,,,,,
2912844,1501039015386,3.21,,0.25,0.04,0.75,0,-5,1,0,2085,120,36.113667,-115.145653,1.3,6.191,2038.4,9,3,1.1,0,0.0,-1,0.0,0.0,0.0,0
2912854,1501039015396,,,,,,,,,0,2040,10000000,,,,,,,,,,,,,,,
2912864,1501039015406,,,,,,,,,0,2025,0,,,,,,,,,,,,,,,
2912874,1501039015416,,,,,,,,,0,1995,220,,,,,,,,,,,,,,,
2912884,1501039015426,3.2,,0.29,0.02,0.72,-0,-8,2,0,2130,220,,,,,,,,,,,,,,,
2912894,1501039015436,,,,,,,,,0,2190,220,,,,,,,,,,,,,,,
2912904,1501039015446,,,,,,,,,0,2160,220,,,,,,,,,,,,,,,
2912914,1501039015456,,,,,,,,,0,2130,220,,,,,,,,,,,,,,,
2912924,1501039015466,3.17,,0.3,0.03,0.75,-0,-6,3,0,2130,220,,,,,,,,,,,,,,,
2912934,1501039015476,,,,,,,,,0,2025,220,,,,,,,,,,,,,,,
2912944,1501039015486,,,,,,,,,0,2190,220,36.113667,-115.145653,2.58,6.191,2038.4,9,3,1.1,0,0.0,-1,0.0,0.0,0.0,0
2912954,1501039015496,,,,,,,,,0,2265,220,,,,,,,,,,,,,,,
2912964,1501039015506,3.12,,0.28,0.06,0.57,-1,-8,4,0,2235,220,,,,,,,,,,,,,,,
2912974,1501039015516,,,,,,,,,0,2205,220,,,,,,,,,,,,,,,
2912984,1501039015526,,,,,,,,,0,2175,380,,,,,,,,,,,,,,,
2912994,1501039015536,,,,,,,,,0,2295,380,,,,,,,,,,,,,,,
2913004,1501039015546,3.19,,0.27,0.07,0.6,-2,-7,8,0,2355,380,,,,,,,,,,,,,,,
2913014,1501039015556,,,,,,,,,0,2325,380,,,,,,,,,,,,,,,
2913024,1501039015566,,,,,,,,,0,2295,380,,,,,,,,,,,,,,,
2913034,1501039015576,,,,,,,,,0,2265,380,,,,,,,,,,,,,,,
2913044,1501039015586,3.17,4.52,0.24,0.05,0.62,-1,-7,6,0,2175,380,36.113667,-115.145653,3.95,6.192,2038.3,9,3,1.1,0,0.0,-1,0.0,0.0,0.0,0
2913054,1501039015597,,,,,,,,,0,2430,380,,,,,,,,,,,,,,,
2913064,1501039015607,,,,,,,,,0,2400,380,,,,,,,,,,,,,,,
2913074,1501039015617,,,,,,,,,0,2370,380,,,,,,,,,,,,,,,
2913084,1501039015627,3.15,,0.26,0.06,0.78,-0,-2,6,0,2325,790,,,,,,,,,,,,,,,
2913094,1501039015637,,,,,,,,,0,2265,790,,,,,,,,,,,,,,,
2913104,1501039015647,,,,,,,,,0,2520,790,,,,,,,,,,,,,,,
2913114,1501039015657,,,,,,,,,0,2475,790,,,,,,,,,,,,,,,
2913124,1501039015667,3.16,,0.25,0.01,0.74,0,-10,8,0,2445,790,,,,,,,,,,,,,,,
2913134,1501039015677,,,,,,,,,0,2385,790,,,,,,,,,,,,,,,
2913144,1501039015687,,,,,,,,,0,2475,790,36.113667,-115.145668,4.42,6.192,2038.3,9,3,1.1,0,0.0,-1,0.0,0.0,0.0,0
2913154,1501039015697,,,,,,,,,0,2580,790,,,,,,,,,,,,,,,
2913164,1501039015707,3.07,,0.21,-0.02,0.73,1,-5,4,0,2520,790,,,,,,,,,,,,,,,
2913174,1501039015717,,,,,,,,,0,2490,3330,,,,,,,,,,,,,,,
2913184,1501039015727,,,,,,,,,0,2460,3330,,,,,,,,,,,,,,,
2913194,1501039015737,,,,,,,,,0,2550,3330,,,,,,,,,,,,,,,
2913204,1501039015747,3.23,,0.26,0.01,0.92,-0,-3,8,0,2595,3330,,,,,,,,,,,,,,,
2913214,1501039015757,,,,,,,,,0,2565,3330,,,,,,,,,,,,,,,
2913224,1501039015767,,,,,,,,,0,2520,3330,,,,,,,,,,,,,,,
2913234,1501039015777,,,,,,,,,0,2445,3330,,,,,,,,,,,,,,,
2913244,1501039015787,3.08,,0.29,0.02,0.83,-1,-4,8,0,2685,3330,36.113667,-115.145668,5.32,6.192,2038.3,9,3,1.1,0,0.0,-1,0.0,0.0,0.0,0
2913254,1501039015797,,,,,,,,,0,2640,110,,,,,,,,,,,,,,,
2913264,1501039015807,,,,,,,,,0,2595,110,,,,,,,,,,,,,,,
2913274,1501039015817,,,,,,,,,0,2550,110,,,,,,,,,,,,,,,
2913284,1501039015827,3.15,,0.27,0.04,0.69,0,-3,7,0,2490,110,,,,,,,,,,,,,,,
2913294,1501039015837,,,,,,,,,0,2715,110,,,,,,,,,,,,,,,
2913304,1501039015847,,,,,,,,,0,2625,110,,,,,,,,,,,,,,,
2913314,1501039015857,,,,,,,,,0,2610,110,,,,,,,,,,,,,,,
2913324,1501039015867,3.12,,0.22,0.11,0.82,1,1,5,0,2520,110,,,,,,,,,,,,,,,
2913334,1501039015877,,,,,,,,,0,2670,120,,,,,,,,,,,,,,,
2913344,1501039015887,,,,,,,,,0,2715,120,36.113667,-115.145668,5.91,6.192,2038.3,9,3,1.1,0,0.0,-1,0.0,0.0,0.0,0
2913354,1501039015897,,,,,,,,,0,2685,120,,,,,,,,,,,,,,,
2913364,1501039015907,3.21,,0.32,0.03,0.94,-0,-0,4,0,2625,120,,,,,,,,,,,,,,,
2913374,1501039015917,,,,,,,,,0,2565,120,,,,,,,,,,,,,,,
2913384,1501039015927,,,,,,,,,0,2775,120,,,,,,,,,,,,,,,
2913394,1501039015937,,,,,,,,,0,2715,120,,,,,,,,,,,,,,,
2913404,1501039015947,3.1,,0.31,-0.03,0.75,1,-6,4,0,2685,120,,,,,,,,,,,,,,,
2913414,1501039015957,,,,,,,,,0,2610,130,,,,,,,,,,,,,,,
2913424,1501039015967,,,,,,,,,0,2790,130,,,,,,,,,,,,,,,
2913434,1501039015977,,,,,,,,,0,2745,130,,,,,,,,,,,,,,,
2913444,1501039015987,3.15,,0.28,-0.05,0.47,-1,-7,5,0,2715,130,36.113667,-115.145668,6.94,6.192,2038.2,9,3,1.1,0,0.0,-1,0.0,0.0,0.0,0
2913454,1501039015997,,,,,,,,,0,2655,130,,,,,,,,,,,,,,,
2913464,1501039015999,,,,,,,,,0,2730,130,,,,,,,,,,,,,,,
2913474,1501039016009,,,,,,,,,0,2745,130,,,,,,,,,,,,,,,
2913484,1501039016019,3.17,,0.26,-0.12,0.4,1,-6,5,0,2745,140,,,,,,,,,,,,,,,
2913494,1501039016029,,,,,,,,,0,2700,140,,,,,,,,,,,,,,,
2913504,1501039016039,,,,,,,,,0,2610,140,,,,,,,,,,,,,,,
2913514,1501039016049,,,,,,,,,0,2820,140,,,,,,,,,,,,,,,
2913524,1501039016059,3.19,,0.2,-0.03,0.7,1,-1,0,0,2745,140,,,,,,,,,,,,,,,
2913534,1501039016069,,,,,,,,,0,2745,140,,,,,,,,,,,,,,,
2913544,1501039016079,,,,,,,,,0,2670,150,36.113667,-115.145676,7.68,6.192,2038.1,9,3,1.9,0,0.0,-1,0.0,0.0,0.0,0
2913554,1501039016095,,,,,,,,,0,2745,150,,,,,,,,,,,,,,,
2913564,1501039016105,3.16,,0.27,-0.07,0.89,-1,-4,5,0,2775,150,,,,,,,,,,,,,,,
2913574,1501039016115,,,,,,,,,0,2760,150,,,,,,,,,,,,,,,
2913584,1501039016125,,,,,,,,,0,2670,150,,,,,,,,,,,,,,,
2913594,1501039016135,,,,,,,,,0,2640,150,,,,,,,,,,,,,,,
2913604,1501039016145,3.21,,0.34,-0.09,0.86,-2,-8,10,0,2820,160,,,,,,,,,,,,,,,
2913614,1501039016155,,,,,,,,,0,2775,160,,,,,,,,,,,,,,,
2913624,1501039016165,,,,,,,,,0,2730,160,,,,,,,,,,,,,,,
2913634,1501039016175,,,,,,,,,0,2640,160,,,,,,,,,,,,,,,
2913644,1501039016185,3.08,,0.29,-0.16,0.82,-2,-10,8,0,2805,160,36.113667,-115.145676,8.37,6.193,2038.4,9,3,1.9,0,0.0,-1,0.0,0.0,0.0,0
2913654,1501039016197,,,,,,,,,0,2790,160,,,,,,,,,,,,,,,
2913664,1501039016207,,,,,,,,,0,2760,160,,,,,,,,,,,,,,,
2913674,1501039016217,,,,,,,,,0,2670,160,,,,,,,,,,,,,,,
2913684,1501039016227,3.12,,0.31,-0.13,0.68,-1,-8,3,0,2760,160,,,,,,,,,,,,,,,
2913694,1501039016237,,,,,,,,,0,2775,160,,,,,,,,,,,,,,,
2913704,1501039016247,,,,,,,,,0,2760,160,,,,,,,,,,,,,,,
2913714,1501039016257,,,,,,,,,0,2700,160,,,,,,,,,,,,,,,
2913724,1501039016267,3.12,,0.24,0.0,0.7,-2,-3,5,0,2640,160,,,,,,,,,,,,,,,
2913734,1501039016277,,,,,,,,,0,2805,160,,,,,,,,,,,,,,,
2913744,1501039016287,,,,,,,,,0,2775,160,36.113667,-115.145676,8.63,6.193,2038.6,9,3,1.9,0,0.0,-1,0.0,0.0,0.0,0
2913754,1501039016297,,,,,,,,,0,2700,160,,,,,,,,,,,,,,,
2913764,1501039016307,3.15,,0.26,-0.04,0.89,0,-3,1,0,2640,160,,,,,,,,,,,,,,,
2913774,1501039016317,,,,,,,,,0,2775,160,,,,,,,,,,,,,,,
2913784,1501039016327,,,,,,,,,0,2790,170,,,,,,,,,,,,,,,
2913794,1501039016337,,,,,,,,,0,2730,170,,,,,,,,,,,,,,,
2913804,1501039016347,3.18,,0.3,-0.07,1.08,-2,-3,-1,0,2685,170,,,,,,,,,,,,,,,
2913814,1501039016357,,,,,,,,,0,2775,170,,,,,,,,,,,,,,,
2913824,1501039016367,,,,,,,,,0,2790,170,,,,,,,,,,,,,,,
2913834,1501039016377,,,,,,,,,0,2790,170,,,,,,,,,,,,,,,
2913844,1501039016387,3.13,,0.3,0.02,1.03,-2,-5,5,0,2730,180,36.113663,-115.145691,9.51,6.193,2038.6,9,3,1.9,0,0.0,-1,0.0,0.0,0.0,0
2913854,1501039016397,,,,,,,,,0,2655,180,,,,,,,,,,,,,,,
2913864,1501039016407,,,,,,,,,0,2835,180,,,,,,,,,,,,,,,
2913874,1501039016417,,,,,,,,,0,2790,180,,,,,,,,,,,,,,,
2913884,1501039016427,3.01,,0.3,-0.09,0.9,-1,-9,3,0,2730,180,,,,,,,,,,,,,,,
2913894,1501039016437,,,,,,,,,0,2685,180,,,,,,,,,,,,,,,
2913904,1501039016447,,,,,,,,,0,2760,180,,,,,,,,,,,,,,,
2913914,1501039016457,,,,,,,,,0,2790,180,,,,,,,,,,,,,,,
2913924,1501039016467,3.1,,0.33,-0.06,0.74,-3,-6,5,0,2760,180,,,,,,,,,,,,,,,
2913934,1501039016477,,,,,,,,,0,2700,180,,,,,,,,,,,,,,,
2913944,1501039016487,,,,,,,,,0,2775,190,36.113663,-115.145691,10.37,6.193,2038.7,9,3,1.9,0,0.0,-1,0.0,0.0,0.0,0
2913954,1501039016497,,,,,,,,,0,2805,190,,,,,,,,,,,,,,,
2913964,1501039016507,3.14,,0.27,-0.06,0.73,-1,-5,3,0,2790,190,,,,,,,,,,,,,,,
2913974,1501039016517,,,,,,,,,0,2700,190,,,,,,,,,,,,,,,
2913984,1501039016527,,,,,,,,,0,2655,190,,,,,,,,,,,,,,,
2913994,1501039016537,,,,,,,,,0,2805,190,,,,,,,,,,,,,,,
2914004,1501039016547,3.12,,0.26,0.06,0.91,-1,-4,-1,0,2775,190,,,,,,,,,,,,,,,
2914014,1501039016557,,,,,,,,,0,2760,190,,,,,,,,,,,,,,,
2914024,1501039016567,,,,,,,,,0,2670,190,,,,,,,,,,,,,,,
2914034,1501039016577,,,,,,,,,0,2775,190,,,,,,,,,,,,,,,
2914044,1501039016587,3.07,4.51,0.24,0.03,1.04,-2,-2,-0,0,2790,190,36.113663,-115.145706,11.03,6.194,2038.9,9,3,1.9,0,0.0,-1,0.0,0.0,0.0,0
2914054,1501039016594,,,,,,,,,0,2760,190,,,,,,,,,,,,,,,
2914064,1501039016604,,,,,,,,,0,2685,190,,,,,,,,,,,,,,,
2914074,1501039016614,,,,,,,,,0,2640,190,,,,,,,,,,,,,,,
2914084,1501039016624,3.11,,0.27,0.0,1.03,-3,-5,3,0,2805,190,,,,,,,,,,,,,,,
2914094,1501039016634,,,,,,,,,0,2775,200,,,,,,,,,,,,,,,
2914104,1501039016644,,,,,,,,,0,2715,200,,,,,,,,,,,,,,,
2914114,1501039016654,,,,,,,,,0,2655,200,,,,,,,,,,,,,,,
2914124,1501039016664,3.05,,0.31,-0.05,0.94,-3,-8,7,0,2805,200,,,,,,,,,,,,,,,
2914134,1501039016674,,,,,,,,,0,2790,200,,,,,,,,,,,,,,,
2914144,1501039016684,,,,,,,,,0,2745,200,36.113663,-115.145706,11.59,6.194,2039.1,9,3,1.9,0,0.0,-1,0.0,0.0,0.0,0
2914154,1501039016696,,,,,,,,,0,2685,200,,,,,,,,,,,,,,,
2914164,1501039016706,3.09,,0.32,0.01,0.86,-2,-7,3,0,2775,200,,,,,,,,,,,,,,,
2914174,1501039016716,,,,,,,,,0,2790,200,,,,,,,,,,,,,,,
2914184,1501039016726,,,,,,,,,0,2760,200,,,,,,,,,,,,,,,
2914194,1501039016736,,,,,,,,,0,2700,210,,,,,,,,,,,,,,,
2914204,1501039016746,3.18,,0.24,0.06,0.82,-4,-2,5,0,2655,210,,,,,,,,,,,,,,,
2914214,1501039016756,,,,,,,,,0,2820,210,,,,,,,,,,,,,,,
2914224,1501039016766,,,,,,,,,0,2790,210,,,,,,,,,,,,,,,
2914234,1501039016776,,,,,,,,,0,2745,210,,,,,,,,,,,,,,,
2914244,1501039016786,3.11,,0.25,0.02,0.98,-2,-1,-1,0,2640,210,36.113663,-115.145706,12.26,6.194,2039.1,9,3,1.9,0,0.0,-1,0.0,0.0,0.0,0
2914254,1501039016796,,,,,,,,,0,2790,210,,,,,,,,,,,,,,,
2914264,1501039016806,,,,,,,,,0,2790,210,,,,,,,,,,,,,,,
2914274,1501039016816,,,,,,,,,0,2745,210,,,,,,,,,,,,,,,
2914284,1501039016826,3.13,,0.26,0.03,1.09,-4,-0,1,0,2685,210,,,,,,,,,,,,,,,
2914294,1501039016836,,,,,,,,,0,2775,210,,,,,,,,,,,,,,,
2914304,1501039016846,,,,,,,,,0,2790,210,,,,,,,,,,,,,,,
2914314,1501039016856,,,,,,,,,0,2775,210,,,,,,,,,,,,,,,
2914324,1501039016866,3.06,,0.29,0.03,1.06,-4,-1,6,0,2715,210,,,,,,,,,,,,,,,
2914334,1501039016876,,,,,,,,,0,2655,210,,,,,,,,,,,,,,,
2914344,1501039016886,,,,,,,,,0,2820,210,36.113663,-115.145714,12.69,6.195,2039.1,9,3,1.9,0,0.0,-1,0.0,0.0,0.0,0
2914354,1501039016896,,,,,,,,,0,2775,210,,,,,,,,,,,,,,,
2914364,1501039016906,3.1,,0.32,-0.08,0.97,-4,-5,5,0,2730,210,,,,,,,,,,,,,,,
2914374,1501039016916,,,,,,,,,0,2685,220,,,,,,,,,,,,,,,
2914384,1501039016926,,,,,,,,,0,2775,220,,,,,,,,,,,,,,,
2914394,1501039016936,,,,,,,,,0,2805,220,,,,,,,,,,,,,,,
2914404,1501039016946,3.14,,0.35,-0.09,0.85,-5,-4,6,0,2760,220,,,,,,,,,,,,,,,
2914414,1501039016956,,,,,,,,,0,2700,220,,,,,,,,,,,,,,,
2914424,1501039016966,,,,,,,,,0,2775,220,,,,,,,,,,,,,,,
2914434,1501039016976,,,,,,,,,0,2820,220,,,,,,,,,,,,,,,
2914444,1501039016986,3.16,,0.29,-0.07,0.87,-4,-2,5,0,2775,220,36.113663,-115.145729,13.4,6.195,2039.1,9,3,1.9,0,0.0,-1,0.0,0.0,0.0,0
2914454,1501039016996,,,,,,,,,0,2730,220,,,,,,,,,,,,,,,
2914464,1501039016998,,,,,,,,,0,2655,230,,,,,,,,,,,,,,,
2914474,1501039017008,,,,,,,,,0,2850,230,,,,,,,,,,,,,,,
2914484,1501039017018,3.14,,0.23,-0.04,1.05,-2,0,-5,0,2790,230,,,,,,,,,,,,,,,
2914494,1501039017028,,,,,,,,,0,2760,230,,,,,,,,,,,,,,,
2914504,1501039017038,,,,,,,,,0,2715,230,,,,,,,,,,,,,,,
2914514,1501039017048,,,,,,,,,0,2775,230,,,,,,,,,,,,,,,
2914524,1501039017058,3.15,,0.22,-0.06,1.13,-3,1,-3,0,2820,230,,,,,,,,,,,,,,,
2914534,1501039017068,,,,,,,,,0,2760,230,,,,,,,,,,,,,,,
2914544,1501039017078,,,,,,,,,0,2700,230,36.113663,-115.145729,13.85,6.195,2039.1,9,3,1.9,0,0.0,-1,0.0,0.0,0.0,0
2914554,1501039017094,,,,,,,,,0,2790,230,,,,,,,,,,,,,,,
2914564,1501039017104,3.24,,0.26,-0.07,1.1,-3,-1,-1,0,2820,230,,,,,,,,,,,,,,,
2914574,1501039017114,,,,,,,,,0,2775,230,,,,,,,,,,,,,,,
2914584,1501039017124,,,,,,,,,0,2730,230,,,,,,,,,,,,,,,
2914594,1501039017134,,,,,,,,,0,2640,230,,,,,,,,,,,,,,,
2914604,1501039017144,3.14,,0.3,-0.1,1.04,-3,-5,3,0,2835,230,,,,,,,,,,,,,,,
2914614,1501039017154,,,,,,,,,0,2790,230,,,,,,,,,,,,,,,
2914624,1501039017164,,,,,,,,,0,2730,230,,,,,,,,,,,,,,,
2914634,1501039017174,,,,,,,,,0,2700,240,,,,,,,,,,,,,,,
2914644,1501039017184,3.12,,0.36,-0.09,0.85,-4,-5,4,0,2790,240,36.113663,-115.145744,14.24,6.196,2039.2,9,3,1.9,0,0.0,-1,0.0,0.0,0.0,0
2914654,1501039017196,,,,,,,,,0,2790,240,,,,,,,,,,,,,,,
2914664,1501039017206,,,,,,,,,0,2760,240,,,,,,,,,,,,,,,
2914674,1501039017216,,,,,,,,,0,2700,240,,,,,,,,,,,,,,,
2914684,1501039017226,3.12,,0.31,-0.08,0.85,-4,-5,3,0,2775,240,,,,,,,,,,,,,,,
2914694,1501039017236,,,,,,,,,0,2805,240,,,,,,,,,,,,,,,
2914704,1501039017246,,,,,,,,,0,2790,240,,,,,,,,,,,,,,,
2914714,1501039017256,,,,,,,,,0,2730,240,,,,,,,,,,,,,,,
2914724,1501039017266,3.18,,0.26,-0.02,0.91,-3,-3,1,0,2640,240,,,,,,,,,,,,,,,
2914734,1501039017276,,,,,,,,,0,2820,240,,,,,,,,,,,,,,,
2914744,1501039017286,,,,,,,,,0,2775,240,36.113663,-115.145744,14.59,6.196,2039.3,9,3,1.9,0,0.0,-1,0.0,0.0,0.0,0
2914754,1501039017296,,,,,,,,,0,2760,250,,,,,,,,,,,,,,,
2914764,1501039017306,3.21,,0.29,-0.02,1.1,-2,-4,-3,0,2715,250,,,,,,,,,,,,,,,
2914774,1501039017316,,,,,,,,,0,2775,250,,,,,,,,,,,,,,,
2914784,1501039017326,,,,,,,,,0,2805,250,,,,,,,,,,,,,,,
2914794,1501039017336,,,,,,,,,0,2745,250,,,,,,,,,,,,,,,
2914804,1501039017346,3.12,,0.29,-0.04,1.16,-4,-4,4,0,2700,250,,,,,,,,,,,,,,,
2914814,1501039017356,,,,,,,,,0,2640,250,,,,,,,,,,,,,,,
2914824,1501039017366,,,,,,,,,0,2805,250,,,,,,,,,,,,,,,
2914834,1501039017376,,,,,,,,,0,2760,250,,,,,,,,,,,,,,,
2914844,1501039017386,3.18,,0.31,-0.02,1.11,-4,-6,5,0,2715,250,36.113663,-115.145752,15.15,6.197,2039.3,9,3,1.9,0,0.0,-1,0.0,0.0,0.0,0
2914854,1501039017392,,,,,,,,,0,2640,250,,,,,,,,,,,,,,,
2914864,1501039017402,,,,,,,,,0,2805,250,,,,,,,,,,,,,,,
2914874,1501039017412,,,,,,,,,0,2805,250,,,,,,,,,,,,,,,
2914884,1501039017422,3.23,,0.37,-0.09,0.99,-5,-8,7,0,2745,250,,,,,,,,,,,,,,,
2914894,1501039017432,,,,,,,,,0,2685,250,,,,,,,,,,,,,,,
2914904,1501039017442,,,,,,,,,0,2760,250,,,,,,,,,,,,,,,
2914914,1501039017452,,,,,,,,,0,2805,250,,,,,,,,,,,,,,,
2914924,1501039017462,3.13,,0.34,-0.07,0.83,-4,-6,7,0,2745,250,,,,,,,,,,,,,,,
2914934,1501039017472,,,,,,,,,0,2730,250,,,,,,,,,,,,,,,
2914944,1501039017482,,,,,,,,,0,2640,250,36.113663,-115.145752,15.61,6.197,2039.4,9,3,1.9,0,0.0,-1,0.0,0.0,0.0,0
2914954,1501039017496,,,,,,,,,0,2820,260,,,,,,,,,,,,,,,
2914964,1501039017506,3.19,,0.25,-0.02,0.86,-2,-4,6,0,2775,260,,,,,,,,,,,,,,,
2914974,1501039017516,,,,,,,,,0,2730,260,,,,,,,,,,,,,,,
2914984,1501039017526,,,,,,,,,0,2640,260,,,,,,,,,,,,,,,
2914994,1501039017536,,,,,,,,,0,2775,260,,,,,,,,,,,,,,,
2915004,1501039017546,3.17,,0.23,0.03,1.07,-2,0,4,0,2805,260,,,,,,,,,,,,,,,
2915014,1501039017556,,,,,,,,,0,2745,260,,,,,,,,,,,,,,,
2915024,1501039017566,,,,,,,,,0,2685,260,,,,,,,,,,,,,,,
2915034,1501039017576,,,,,,,,,0,2775,260,,,,,,,,,,,,,,,
2915044,1501039017586,3.24,4.52,0.22,0.02,1.1,-2,-1,5,0,2805,260,36.113663,-115.145767,15.78,6.197,2039.6,9,3,1.9,0,0.0,-1,0.0,0.0,0.0,0
2915054,1501039017595,,,,,,,,,0,2760,260,,,,,,,,,,,,,,,
2915064,1501039017605,,,,,,,,,0,2730,260,,,,,,,,,,,,,,,
2915074,1501039017615,,,,,,,,,0,2625,260,,,,,,,,,,,,,,,
2915084,1501039017625,3.21,,0.24,-0.02,1.05,-3,-4,8,0,2835,260,,,,,,,,,,,,,,,
2915094,1501039017635,,,,,,,,,0,2760,260,,,,,,,,,,,,,,,
2915104,1501039017645,,,,,,,,,0,2745,260,,,,,,,,,,,,,,,
2915114,1501039017655,,,,,,,,,0,2685,260,,,,,,,,,,,,,,,
2915124,1501039017665,3.14,,0.28,-0.09,0.99,-3,-6,7,0,2775,260,,,,,,,,,,,,,,,
2915134,1501039017675,,,,,,,,,0,2805,260,,,,,,,,,,,,,,,
2915144,1501039017685,,,,,,,,,0,2745,260,36.113663,-115.145782,16.12,6.198,2039.7,9,3,1.9,0,0.0,-1,0.0,0.0,0.0,0
2915154,1501039017695,,,,,,,,,0,2685,260,,,,,,,,,,,,,,,
2915164,1501039017705,3.17,,0.27,-0.06,0.89,-3,-4,7,0,2760,260,,,,,,,,,,,,,,,
2915174,1501039017715,,,,,,,,,0,2835,270,,,,,,,,,,,,,,,
2915184,1501039017725,,,,,,,,,0,2775,270,,,,,,,,,,,,,,,
2915194,1501039017735,,,,,,,,,0,2745,270,,,,,,,,,,,,,,,
2915204,1501039017745,3.19,,0.2,-0.01,0.89,-2,-3,4,0,2655,270,,,,,,,,,,,,,,,
2915214,1501039017755,,,,,,,,,0,2850,270,,,,,,,,,,,,,,,
2915224,1501039017765,,,,,,,,,0,2790,270,,,,,,,,,,,,,,,
2915234,1501039017775,,,,,,,,,0,2745,270,,,,,,,,,,,,,,,
2915244,1501039017785,3.24,,0.21,0.01,1.1,-0,-2,-1,0,2700,270,36.113663,-115.145782,16.46,6.198,2039.9,9,3,1.9,0,0.0,-1,0.0,0.0,0.0,0
2915254,1501039017795,,,,,,,,,0,2760,270,,,,,,,,,,,,,,,
2915264,1501039017805,,,,,,,,,0,2805,270,,,,,,,,,,,,,,,
2915274,1501039017815,,,,,,,,,0,2760,270,,,,,,,,,,,,,,,
2915284,1501039017825,3.21,,0.19,0.01,1.2,-2,-0,4,0,2685,270,,,,,,,,,,,,,,,
2915294,1501039017835,,,,,,,,,0,2790,270,,,,,,,,,,,,,,,
2915304,1501039017845,,,,,,,,,0,2820,270,,,,,,,,,,,,,,,
2915314,1501039017855,,,,,,,,,0,2775,270,,,,,,,,,,,,,,,
2915324,1501039017865,3.18,,0.21,0.0,1.16,-2,-2,5,0,2715,270,,,,,,,,,,,,,,,
2915334,1501039017875,,,,,,,,,0,2655,270,,,,,,,,,,,,,,,
2915344,1501039017885,,,,,,,,,0,2805,270,36.113663,-115.14579,16.69,6.199,2040.1,9,3,1.9,0,0.0,-1,0.0,0.0,0.0,0
2915354,1501039017895,,,,,,,,,0,2775,280,,,,,,,,,,,,,,,
2915364,1501039017905,3.22,,0.29,-0.09,1.05,-3,-6,6,0,2760,280,,,,,,,,,,,,,,,
2915374,1501039017915,,,,,,,,,0,2715,280,,,,,,,,,,,,,,,
2915384,1501039017925,,,,,,,,,0,2790,280,,,,,,,,,,,,,,,
2915394,1501039017935,,,,,,,,,0,2820,280,,,,,,,,,,,,,,,
2915404,1501039017945,3.22,,0.31,-0.13,0.77,-4,-4,7,0,2760,280,,,,,,,,,,,,,,,
2915414,1501039017955,,,,,,,,,0,2715,280,,,,,,,,,,,,,,,
2915424,1501039017965,,,,,,,,,0,2805,280,,,,,,,,,,,,,,,
2915434,1501039017975,,,,,,,,,0,2820,280,,,,,,,,,,,,,,,
2915444,1501039017985,3.18,,0.21,-0.06,0.74,-2,-3,8,0,2805,280,36.113663,-115.145805,16.69,6.199,2040.4,9,3,1.9,0,0.0,-1,0.0,0.0,0.0,0
2915454,1501039017995,,,,,,,,,0,2760,280,,,,,,,,,,,,,,,
2915464,1501039017999,,,,,,,,,0,2655,280,,,,,,,,,,,,,,,
2915474,1501039018009,,,,,,,,,0,2835,280,,,,,,,,,,,,,,,
2915484,1501039018019,3.13,,0.16,0.02,0.94,-1,1,-1,0,2790,280,,,,,,,,,,,,,,,
2915494,1501039018029,,,,,,,,,0,2775,280,,,,,,,,,,,,,,,
2915504,1501039018039,,,,,,,,,0,2715,280,,,,,,,,,,,,,,,
2915514,1501039018049,,,,,,,,,0,2805,280,,,,,,,,,,,,,,,
2915524,1501039018059,3.14,,0.1,0.08,1.11,-2,4,2,0,2820,280,,,,,,,,,,,,,,,
2915534,1501039018069,,,,,,,,,0,2760,280,,,,,,,,,,,,,,,
2915544,1501039018079,,,,,,,,,0,2715,280,36.113663,-115.145805,17.07,6.2,2040.5,9,3,1.9,0,0.0,-1,0.0,0.0,0.0,0
2915554,1501039018095,,,,,,,,,0,2790,280,,,,,,,,,,,,,,,
2915564,1501039018105,3.24,,0.15,0.09,1.15,-3,2,5,0,2865,290,,,,,,,,,,,,,,,
2915574,1501039018115,,,,,,,,,0,2805,290,,,,,,,,,,,,,,,
2915584,1501039018125,,,,,,,,,0,2775,290,,,,,,,,,,,,,,,
2915594,1501039018135,,,,,,,,,0,2670,280,,,,,,,,,,,,,,,
2915604,1501039018145,3.19,,0.19,-0.02,0.99,-3,-2,7,0,2850,280,,,,,,,,,,,,,,,
2915614,1501039018155,,,,,,,,,0,2820,280,,,,,,,,,,,,,,,
2915624,1501039018165,,,,,,,,,0,2775,280,,,,,,,,,,,,,,,
2915634,1501039018175,,,,,,,,,0,2745,300,,,,,,,,,,,,,,,
2915644,1501039018185,3.13,,0.26,-0.04,0.88,-3,-5,7,0,2820,300,36.113663,-115.145821,17.47,6.2,2040.6,9,3,1.9,0,0.0,-1,0.0,0.0,0.0,0
2915654,1501039018195,,,,,,,,,0,2850,300,,,,,,,,,,,,,,,
2915664,1501039018205,,,,,,,,,0,2790,290,,,,,,,,,,,,,,,
2915674,1501039018215,,,,,,,,,0,2745,290,,,,,,,,,,,,,,,
2915684,1501039018225,3.15,,0.25,-0.02,0.7,-2,-5,7,0,2820,290,,,,,,,,,,,,,,,
2915694,1501039018235,,,,,,,,,0,2865,290,,,,,,,,,,,,,,,
2915704,1501039018245,,,,,,,,,0,2805,290,,,,,,,,,,,,,,,
2915714,1501039018255,,,,,,,,,0,2775,290,,,,,,,,,,,,,,,
2915724,1501039018265,3.19,,0.13,0.05,0.67,-1,-4,7,0,2685,290,,,,,,,,,,,,,,,
2915734,1501039018275,,,,,,,,,0,2865,290,,,,,,,,,,,,,,,
2915744,1501039018285,,,,,,,,,0,2820,290,36.113659,-115.145828,17.75,6.201,2040.6,9,3,1.9,0,0.0,-1,0.0,0.0,0.0,0
2915754,1501039018295,,,,,,,,,0,2790,290,,,,,,,,,,,,,,,
2915764,1501039018305,3.24,,0.13,0.07,0.79,1,-3,4,0,2700,290,,,,,,,,,,,,,,,
2915774,1501039018315,,,,,,,,,0,2865,290,,,,,,,,,,,,,,,
2915784,1501039018325,,,,,,,,,0,2835,290,,,,,,,,,,,,,,,
2915794,1501039018335,,,,,,,,,0,2820,290,,,,,,,,,,,,,,,
2915804,1501039018345,3.24,,0.08,0.03,0.96,1,-2,-2,0,2760,300,,,,,,,,,,,,,,,
2915814,1501039018355,,,,,,,,,0,2835,300,,,,,,,,,,,,,,,
2915824,1501039018365,,,,,,,,,0,2880,300,,,,,,,,,,,,,,,
2915834,1501039018375,,,,,,,,,0,2820,300,,,,,,,,,,,,,,,
2915844,1501039018385,3.2,,0.09,0.04,1.13,-2,-1,5,0,2760,300,36.113659,-115.145828,18.19,6.201,2040.7,9,3,1.9,0,0.0,-1,0.0,0.0,0.0,0
2915854,1501039018395,,,,,,,,,0,2850,300,,,,,,,,,,,,,,,
2915864,1501039018405,,,,,,,,,0,2865,300,,,,,,,,,,,,,,,
2915874,1501039018415,,,,,,,,,0,2850,300,,,,,,,,,,,,,,,
2915884,1501039018425,3.16,,0.13,0.01,1.12,-1,-3,8,0,2790,300,,,,,,,,,,,,,,,
2915894,1501039018435,,,,,,,,,0,2715,300,,,,,,,,,,,,,,,
2915904,1501039018445,,,,,,,,,0,2880,300,,,,,,,,,,,,,,,
2915914,1501039018455,,,,,,,,,0,2835,300,,,,,,,,,,,,,,,
2915924,1501039018465,3.17,,0.18,-0.08,1.02,0,-8,7,0,2790,300,,,,,,,,,,,,,,,
2915934,1501039018475,,,,,,,,,0,2715,310,,,,,,,,,,,,,,,
2915944,1501039018485,,,,,,,,,0,2880,310,36.113659,-115.145844,18.2,6.202,2040.9,9,3,1.9,0,0.0,-1,0.0,0.0,0.0,0
2915954,1501039018495,,,,,,,,,0,2835,310,,,,,,,,,,,,,,,
2915964,1501039018505,3.23,,0.21,-0.11,0.77,-1,-9,7,0,2835,300,,,,,,,,,,,,,,,
2915974,1501039018515,,,,,,,,,0,2775,300,,,,,,,,,,,,,,,
2915984,1501039018525,,,,,,,,,0,2850,300,,,,,,,,,,,,,,,
2915994,1501039018535,,,,,,,,,0,2865,310,,,,,,,,,,,,,,,
2916004,1501039018545,3.22,,0.2,-0.13,0.56,-1,-8,8,0,2835,310,,,,,,,,,,,,,,,
2916014,1501039018555,,,,,,,,,0,2775,310,,,,,,,,,,,,,,,
2916024,1501039018565,,,,,,,,,0,2865,310,,,,,,,,,,,,,,,
2916034,1501039018575,,,,,,,,,0,2880,310,,,,,,,,,,,,,,,
2916044,1501039018585,3.29,4.51,0.12,-0.0,0.54,1,-6,7,0,2850,310,36.113659,-115.145859,18.81,6.202,2040.9,9,3,1.9,0,0.0,-1,0.0,0.0,0.0,0
2916054,1501039018596,,,,,,,,,0,2805,310,,,,,,,,,,,,,,,
2916064,1501039018606,,,,,,,,,0,2715,310,,,,,,,,,,,,,,,
2916074,1501039018616,,,,,,,,,0,2895,310,,,,,,,,,,,,,,,
2916084,1501039018626,3.2,,0.11,0.15,0.68,2,-4,4,0,2850,310,,,,,,,,,,,,,,,
2916094,1501039018636,,,,,,,,,0,2805,310,,,,,,,,,,,,,,,
2916104,1501039018646,,,,,,,,,0,2730,310,,,,,,,,,,,,,,,
2916114,1501039018656,,,,,,,,,0,2895,310,,,,,,,,,,,,,,,
2916124,1501039018666,3.16,,0.04,0.15,0.93,2,-2,-2,0,2865,310,,,,,,,,,,,,,,,
2916134,1501039018676,,,,,,,,,0,2835,310,,,,,,,,,,,,,,,
2916144,1501039018686,,,,,,,,,0,2775,310,36.113659,-115.145859,18.95,6.203,2041.3,9,3,1.9,0,0.0,-1,0.0,0.0,0.0,0
2916154,1501039018696,,,,,,,,,0,2865,310,,,,,,,,,,,,,,,
2916164,1501039018706,3.26,,0.02,0.11,1.13,-1,2,4,0,2880,310,,,,,,,,,,,,,,,
2916174,1501039018716,,,,,,,,,0,2835,310,,,,,,,,,,,,,,,
2916184,1501039018726,,,,,,,,,0,2790,310,,,,,,,,,,,,,,,
2916194,1501039018736,,,,,,,,,0,2895,310,,,,,,,,,,,,,,,
2916204,1501039018746,3.26,,0.06,0.07,1.05,-1,1,7,0,2910,310,,,,,,,,,,,,,,,
2916214,1501039018756,,,,,,,,,0,2850,320,,,,,,,,,,,,,,,
2916224,1501039018766,,,,,,,,,0,2805,320,,,,,,,,,,,,,,,
2916234,1501039018776,,,,,,,,,0,2745,320,,,,,,,,,,,,,,,
2916244,1501039018786,3.25,,0.14,-0.02,1.05,0,-3,7,0,2910,310,36.113659,-115.145866,19.44,6.203,2041.6,9,3,1.9,0,0.0,-1,0.0,0.0,0.0,0
2916254,1501039018796,,,,,,,,,0,2865,310,,,,,,,,,,,,,,,
2916264,1501039018806,,,,,,,,,0,2835,310,,,,,,,,,,,,,,,
2916274,1501039018816,,,,,,,,,0,2745,310,,,,,,,,,,,,,,,
2916284,1501039018826,3.24,,0.18,-0.09,0.96,-0,-5,7,0,2925,310,,,,,,,,,,,,,,,
2916294,1501039018836,,,,,,,,,0,2880,310,,,,,,,,,,,,,,,
2916304,1501039018846,,,,,,,,,0,2820,310,,,,,,,,,,,,,,,
2916314,1501039018856,,,,,,,,,0,2745,320,,,,,,,,,,,,,,,
2916324,1501039018866,3.09,,0.24,-0.17,0.79,-1,-6,8,0,2925,320,,,,,,,,,,,,,,,
2916334,1501039018876,,,,,,,,,0,2895,320,,,,,,,,,,,,,,,
2916344,1501039018886,,,,,,,,,0,2865,320,36.113659,-115.145882,19.48,6.204,2042.0,9,3,1.9,0,0.0,-1,0.0,0.0,0.0,0
2916354,1501039018896,,,,,,,,,0,2805,320,,,,,,,,,,,,,,,
2916364,1501039018906,3.15,,0.24,-0.15,0.67,-1,-6,7,0,2895,320,,,,,,,,,,,,,,,
2916374,1501039018916,,,,,,,,,0,2910,320,,,,,,,,,,,,,,,
2916384,1501039018926,,,,,,,,,0,2880,320,,,,,,,,,,,,,,,
2916394,1501039018936,,,,,,,,,0,2835,320,,,,,,,,,,,,,,,
2916404,1501039018946,3.2,,0.2,-0.05,0.56,-1,-8,5,0,2925,330,,,,,,,,,,,,,,,
2916414,1501039018956,,,,,,,,,0,2925,330,,,,,,,,,,,,,,,
2916424,1501039018966,,,,,,,,,0,2895,330,,,,,,,,,,,,,,,
2916434,1501039018976,,,,,,,,,0,2820,320,,,,,,,,,,,,,,,
2916444,1501039018986,3.2,,0.16,0.03,0.56,-0,-8,3,0,2910,320,36.113655,-115.145897,19.99,6.204,2042.5,9,3,1.9,0,0.0,-1,0.0,0.0,0.0,0
2916454,1501039018996,,,,,,,,,0,2925,320,,,,,,,,,,,,,,,
2916464,1501039019000,,,,,,,,,0,2895,320,,,,,,,,,,,,,,,
2916474,1501039019010,,,,,,,,,0,2835,320,,,,,,,,,,,,,,,
2916484,1501039019020,3.2,,0.07,0.09,0.64,2,-7,-3,0,2775,320,,,,,,,,,,,,,,,
2916494,1501039019030,,,,,,,,,0,2925,320,,,,,,,,,,,,,,,
2916504,1501039019040,,,,,,,,,0,2895,320,,,,,,,,,,,,,,,
2916514,1501039019050,,,,,,,,,0,2835,320,,,,,,,,,,,,,,,
2916524,1501039019060,3.26,,0.05,0.1,0.83,4,-6,-8,0,2760,330,,,,,,,,,,,,,,,
2916534,1501039019070,,,,,,,,,0,2925,330,,,,,,,,,,,,,,,
2916544,1501039019080,,,,,,,,,0,2880,330,36.113655,-115.145912,20.31,6.205,2042.8,9,3,1.9,0,0.0,-1,0.0,0.0,0.0,0
2916554,1501039019096,,,,,,,,,0,2850,330,,,,,,,,,,,,,,,
2916564,1501039019106,3.21,,-0.02,0.04,1.04,4,-5,-14,0,2760,330,,,,,,,,,,,,,,,
2916574,1501039019116,,,,,,,,,0,2940,330,,,,,,,,,,,,,,,
2916584,1501039019126,,,,,,,,,0,2925,330,,,,,,,,,,,,,,,
2916594,1501039019136,,,,,,,,,0,2880,330,,,,,,,,,,,,,,,
2916604,1501039019146,3.16,,-0.09,0.04,1.21,0,-0,-8,0,2820,330,,,,,,,,,,,,,,,
2916614,1501039019156,,,,,,,,,0,2910,330,,,,,,,,,,,,,,,
2916624,1501039019166,,,,,,,,,0,2940,330,,,,,,,,,,,,,,,
2916634,1501039019176,,,,,,,,,0,2880,330,,,,,,,,,,,,,,,
2916644,1501039019186,3.2,,-0.04,0.04,1.31,-3,3,4,0,2835,320,36.113655,-115.145912,20.72,6.205,2043.2,9,3,1.9,0,0.0,-1,0.0,0.0,0.0,0
2916654,1501039019196,,,,,,,,,0,2925,320,,,,,,,,,,,,,,,
2916664,1501039019206,,,,,,,,,0,2925,320,,,,,,,,,,,,,,,
2916674,1501039019216,,,,,,,,,0,2895,330,,,,,,,,,,,,,,,
2916684,1501039019226,3.18,,0.06,0.01,1.24,-2,-0,8,0,2835,330,,,,,,,,,,,,,,,
2916694,1501039019236,,,,,,,,,0,2925,330,,,,,,,,,,,,,,,
2916704,1501039019246,,,,,,,,,0,2940,330,,,,,,,,,,,,,,,
2916714,1501039019256,,,,,,,,,0,2925,330,,,,,,,,,,,,,,,
2916724,1501039019266,3.12,,0.1,-0.03,1.18,-1,-2,7,0,2865,330,,,,,,,,,,,,,,,
2916734,1501039019276,,,,,,,,,0,2805,330,,,,,,,,,,,,,,,
2916744,1501039019286,,,,,,,,,0,2985,330,36.113655,-115.14592,20.77,6.206,2043.4,9,3,1.9,0,0.0,-1,0.0,0.0,0.0,0
2916754,1501039019296,,,,,,,,,0,2955,330,,,,,,,,,,,,,,,
2916764,1501039019306,3.23,,0.17,-0.11,1.25,-1,-5,6,0,2895,350,,,,,,,,,,,,,,,
2916774,1501039019316,,,,,,,,,0,2820,350,,,,,,,,,,,,,,,
2916784,1501039019326,,,,,,,,,0,2970,350,,,,,,,,,,,,,,,
2916794,1501039019336,,,,,,,,,0,2955,330,,,,,,,,,,,,,,,
2916804,1501039019346,3.23,,0.27,-0.14,1.12,-1,-7,7,0,2895,330,,,,,,,,,,,,,,,
2916814,1501039019356,,,,,,,,,0,2820,330,,,,,,,,,,,,,,,
2916824,1501039019366,,,,,,,,,0,2985,340,,,,,,,,,,,,,,,
2916834,1501039019376,,,,,,,,,0,2955,340,,,,,,,,,,,,,,,
2916844,1501039019386,3.2,,0.31,-0.18,1.02,-3,-8,9,0,2910,340,36.113655,-115.145935,20.74,6.207,2043.4,9,3,1.9,0,0.0,-1,0.0,0.0,0.0,0
2916854,1501039019398,,,,,,,,,0,2835,340,,,,,,,,,,,,,,,
2916864,1501039019408,,,,,,,,,0,2985,340,,,,,,,,,,,,,,,
2916874,1501039019418,,,,,,,,,0,2970,340,,,,,,,,,,,,,,,
2916884,1501039019428,3.26,,0.29,-0.21,0.9,-4,-9,12,0,2925,340,,,,,,,,,,,,,,,
2916894,1501039019438,,,,,,,,,0,2835,340,,,,,,,,,,,,,,,
2916904,1501039019448,,,,,,,,,0,3000,340,,,,,,,,,,,,,,,
2916914,1501039019458,,,,,,,,,0,2985,340,,,,,,,,,,,,,,,
2916924,1501039019468,3.15,,0.24,-0.18,0.67,-5,-9,9,0,2925,340,,,,,,,,,,,,,,,
2916934,1501039019478,,,,,,,,,0,2880,340,,,,,,,,,,,,,,,
2916944,1501039019488,,,,,,,,,0,2850,340,36.113655,-115.14595,20.99,6.207,2043.7,9,3,1.9,0,0.0,-1,0.0,0.0,0.0,0
2916954,1501039019496,,,,,,,,,0,2820,340,,,,,,,,,,,,,,,
2916964,1501039019506,3.21,,0.13,-0.1,0.62,-6,-6,7,0,2805,320,,,,,,,,,,,,,,,
2916974,1501039019516,,,,,,,,,0,2745,320,,,,,,,,,,,,,,,
2916984,1501039019526,,,,,,,,,0,2745,320,,,,,,,,,,,,,,,
2916994,1501039019536,,,,,,,,,0,2685,320,,,,,,,,,,,,,,,
2917004,1501039019546,3.22,,0.03,-0.06,0.64,-7,-4,3,0,2655,310,,,,,,,,,,,,,,,
2917014,1501039019556,,,,,,,,,0,2610,310,,,,,,,,,,,,,,,
2917024,1501039019566,,,,,,,,,0,2580,310,,,,,,,,,,,,,,,
2917034,1501039019576,,,,,,,,,0,2580,300,,,,,,,,,,,,,,,
2917044,1501039019586,3.23,4.52,-0.12,-0.07,0.74,-6,1,3,0,2535,300,36.113655,-115.145958,21.44,6.208,2043.9,9,3,1.9,0,0.0,-1,0.0,0.0,0.0,0
2917054,1501039019595,,,,,,,,,0,2490,300,,,,,,,,,,,,,,,
2917064,1501039019605,,,,,,,,,0,2490,290,,,,,,,,,,,,,,,
2917074,1501039019615,,,,,,,,,0,2445,290,,,,,,,,,,,,,,,
2917084,1501039019625,3.21,,-0.22,-0.07,0.77,-5,4,5,0,2445,290,,,,,,,,,,,,,,,
2917094,1501039019635,,,,,,,,,0,2430,290,,,,,,,,,,,,,,,
2917104,1501039019645,,,,,,,,,0,2430,290,,,,,,,,,,,,,,,
2917114,1501039019655,,,,,,,,,0,2415,290,,,,,,,,,,,,,,,
2917124,1501039019665,3.17,,-0.27,-0.06,0.76,-5,3,5,0,2400,290,,,,,,,,,,,,,,,
2917134,1501039019675,,,,,,,,,0,2415,280,,,,,,,,,,,,,,,
2917144,1501039019685,,,,,,,,,0,2400,280,36.113651,-115.145958,21.39,6.208,2043.8,9,3,1.9,0,0.0,-1,0.0,0.0,0.0,0
2917154,1501039019695,,,,,,,,,0,2370,280,,,,,,,,,,,,,,,
2917164,1501039019699,3.18,,-0.36,-0.08,0.85,-6,6,4,0,2325,280,,,,,,,,,,,,,,,
2917174,1501039019709,,,,,,,,,0,2310,270,,,,,,,,,,,,,,,
2917184,1501039019719,,,,,,,,,0,2325,270,,,,,,,,,,,,,,,
2917194,1501039019729,,,,,,,,,0,2310,270,,,,,,,,,,,,,,,
2917204,1501039019739,3.2,,-0.41,-0.08,0.81,-6,4,2,0,2280,270,,,,,,,,,,,,,,,
2917214,1501039019749,,,,,,,,,0,2265,270,,,,,,,,,,,,,,,
2917224,1501039019759,,,,,,,,,0,2235,270,,,,,,,,,,,,,,,
2917234,1501039019769,,,,,,,,,0,2250,270,,,,,,,,,,,,,,,
2917244,1501039019779,3.22,,-0.48,-0.03,0.93,-5,4,4,0,2235,260,36.113651,-115.145973,21.24,6.209,2043.5,9,3,1.9,0,0.0,-1,0.0,0.0,0.0,0
2917254,1501039019795,,,,,,,,,0,2205,260,,,,,,,,,,,,,,,
2917264,1501039019805,,,,,,,,,0,2190,260,,,,,,,,,,,,,,,
2917274,1501039019815,,,,,,,,,0,2190,260,,,,,,,,,,,,,,,
2917284,1501039019825,3.26,,-0.53,-0.04,0.94,-4,0,3,0,2160,260,,,,,,,,,,,,,,,
2917294,1501039019835,,,,,,,,,0,2160,260,,,,,,,,,,,,,,,
2917304,1501039019845,,,,,,,,,0,2145,260,,,,,,,,,,,,,,,
2917314,1501039019855,,,,,,,,,0,2130,260,,,,,,,,,,,,,,,
2917324,1501039019865,3.22,,-0.57,-0.03,0.94,-4,2,4,0,2115,250,,,,,,,,,,,,,,,
2917334,1501039019875,,,,,,,,,0,2100,250,,,,,,,,,,,,,,,
2917344,1501039019885,,,,,,,,,0,2100,250,36.113651,-115.145988,20.25,6.21,2043.4,9,3,1.9,0,0.0,-1,0.0,0.0,0.0,0
2917354,1501039019895,,,,,,,,,0,2100,250,,,,,,,,,,,,,,,
2917364,1501039019905,3.26,,-0.62,-0.02,0.94,-3,1,4,0,2070,250,,,,,,,,,,,,,,,
2917374,1501039019915,,,,,,,,,0,2055,250,,,,,,,,,,,,,,,
2917384,1501039019925,,,,,,,,,0,2040,250,,,,,,,,,,,,,,,
2917394,1501039019935,,,,,,,,,0,2010,250,,,,,,,,,,,,,,,
2917404,1501039019945,3.27,,-0.6,-0.04,0.92,-4,-1,5,0,2010,230,,,,,,,,,,,,,,,
2917414,1501039019955,,,,,,,,,0,2010,230,,,,,,,,,,,,,,,
2917424,1501039019965,,,,,,,,,0,1965,230,,,,,,,,,,,,,,,
2917434,1501039019975,,,,,,,,,0,1965,230,,,,,,,,,,,,,,,
2917444,1501039019985,3.26,,-0.63,-0.04,0.95,-4,-1,4,0,1920,220,36.113651,-115.145996,19.01,6.21,2043.3,9,3,1.9,0,0.0,-1,0.0,0.0,0.0,0
2917454,1501039019991,,,,,,,,,0,1905,220,,,,,,,,,,,,,,,
2917464,1501039020001,,,,,,,,,0,1905,220,,,,,,,,,,,,,,,
2917474,1501039020011,,,,,,,,,0,1890,220,,,,,,,,,,,,,,,
2917484,1501039020021,3.22,,-0.66,-0.07,0.92,-3,-1,4,0,1890,220,,,,,,,,,,,,,,,
2917494,1501039020031,,,,,,,,,0,1860,220,,,,,,,,,,,,,,,
2917504,1501039020041,,,,,,,,,0,1845,220,,,,,,,,,,,,,,,
2917514,1501039020051,,,,,,,,,0,1830,220,,,,,,,,,,,,,,,
2917524,1501039020061,3.27,,-0.64,-0.09,0.95,-2,-3,3,0,1815,220,,,,,,,,,,,,,,,
2917534,1501039020071,,,,,,,,,0,1830,220,,,,,,,,,,,,,,,
2917544,1501039020081,,,,,,,,,0,1800,210,36.113651,-115.145996,17.6,6.211,2043.0,9,3,1.9,0,0.0,-1,0.0,0.0,0.0,0
2917554,1501039020097,,,,,,,,,0,1785,210,,,,,,,,,,,,,,,
2917564,1501039020107,3.26,,-0.65,-0.08,1.0,-2,-3,4,0,1770,210,,,,,,,,,,,,,,,
2917574,1501039020117,,,,,,,,,0,1755,210,,,,,,,,,,,,,,,
2917584,1501039020127,,,,,,,,,0,1755,200,,,,,,,,,,,,,,,
2917594,1501039020137,,,,,,,,,0,1740,200,,,,,,,,,,,,,,,
2917604,1501039020147,3.19,,-0.64,-0.12,1.03,-3,-4,5,0,1740,200,,,,,,,,,,,,,,,
2917614,1501039020157,,,,,,,,,0,1725,200,,,,,,,,,,,,,,,
2917624,1501039020167,,,,,,,,,0,1710,200,,,,,,,,,,,,,,,
2917634,1501039020177,,,,,,,,,0,1695,200,,,,,,,,,,,,,,,
2917644,1501039020187,3.23,,-0.62,-0.12,1.0,-3,-6,5,0,1665,200,36.113651,-115.146011,16.0,6.211,2043.2,9,3,1.9,0,0.0,-1,0.0,0.0,0.0,0
2917654,1501039020197,,,,,,,,,0,1650,200,,,,,,,,,,,,,,,
2917664,1501039020207,,,,,,,,,0,1635,200,,,,,,,,,,,,,,,
2917674,1501039020217,,,,,,,,,0,1650,200,,,,,,,,,,,,,,,
2917684,1501039020227,3.21,,-0.64,-0.04,0.97,-3,-6,4,0,1650,200,,,,,,,,,,,,,,,
2917694,1501039020237,,,,,,,,,0,1620,180,,,,,,,,,,,,,,,
2917704,1501039020247,,,,,,,,,0,1590,180,,,,,,,,,,,,,,,
2917714,1501039020257,,,,,,,,,0,1560,180,,,,,,,,,,,,,,,
2917724,1501039020267,3.23,,-0.64,-0.1,1.0,-2,-7,4,0,1560,180,,,,,,,,,,,,,,,
2917734,1501039020277,,,,,,,,,0,1530,180,,,,,,,,,,,,,,,
2917744,1501039020287,,,,,,,,,0,1545,170,36.113651,-115.146027,14.7,6.212,2043.2,9,3,1.9,0,0.0,-1,0.0,0.0,0.0,0
2917754,1501039020297,,,,,,,,,0,1560,170,,,,,,,,,,,,,,,
2917764,1501039020307,3.25,,-0.64,-0.11,1.04,-2,-6,4,0,1545,170,,,,,,,,,,,,,,,
2917774,1501039020317,,,,,,,,,0,1515,170,,,,,,,,,,,,,,,
2917784,1501039020327,,,,,,,,,0,1500,170,,,,,,,,,,,,,,,
2917794,1501039020337,,,,,,,,,0,1485,170,,,,,,,,,,,,,,,
2917804,1501039020347,3.23,,-0.63,-0.06,1.04,-2,-4,5,0,1470,160,,,,,,,,,,,,,,,
2917814,1501039020357,,,,,,,,,0,1455,160,,,,,,,,,,,,,,,
2917824,1501039020367,,,,,,,,,0,1470,160,,,,,,,,,,,,,,,
2917834,1501039020377,,,,,,,,,0,1470,160,,,,,,,,,,,,,,,
2917844,1501039020387,3.24,,-0.61,-0.02,1.03,-2,-6,5,0,1470,160,36.113651,-115.146027,13.42,6.212,2043.1,9,3,1.9,0,0.0,-1,0.0,0.0,0.0,0
2917854,1501039020397,,,,,,,,,0,1440,160,,,,,,,,,,,,,,,
2917864,1501039020407,,,,,,,,,0,1425,160,,,,,,,,,,,,,,,
2917874,1501039020417,,,,,,,,,0,1425,160,,,,,,,,,,,,,,,
2917884,1501039020427,3.23,,-0.6,-0.03,1.06,-2,-7,6,0,1395,160,,,,,,,,,,,,,,,
2917894,1501039020437,,,,,,,,,0,1395,160,,,,,,,,,,,,,,,
2917904,1501039020447,,,,,,,,,0,1380,160,,,,,,,,,,,,,,,
2917914,1501039020457,,,,,,,,,0,1410,160,,,,,,,,,,,,,,,
2917924,1501039020467,3.19,,-0.57,-0.06,1.05,-2,-9,5,0,1425,160,,,,,,,,,,,,,,,
2917934,1501039020477,,,,,,,,,0,1395,140,,,,,,,,,,,,,,,
2917944,1501039020487,,,,,,,,,0,1380,140,36.113651,-115.146034,12.22,6.212,2043.0,9,3,1.9,0,0.0,-1,0.0,0.0,0.0,0
2917954,1501039020497,,,,,,,,,0,1365,140,,,,,,,,,,,,,,,
2917964,1501039020507,3.24,,-0.57,-0.04,1.02,-2,-11,5,0,1335,140,,,,,,,,,,,,,,,
2917974,1501039020517,,,,,,,,,0,1320,140,,,,,,,,,,,,,,,
2917984,1501039020527,,,,,,,,,0,1320,140,,,,,,,,,,,,,,,
2917994,1501039020537,,,,,,,,,0,1290,140,,,,,,,,,,,,,,,
2918004,1501039020547,3.2,,-0.59,0.0,1.01,-1,-10,5,0,1350,140,,,,,,,,,,,,,,,
2918014,1501039020557,,,,,,,,,0,1380,130,,,,,,,,,,,,,,,
2918024,1501039020567,,,,,,,,,0,1350,130,,,,,,,,,,,,,,,
2918034,1501039020577,,,,,,,,,0,1320,130,,,,,,,,,,,,,,,
2918044,1501039020587,3.24,4.5,-0.6,0.04,0.97,-1,-7,4,0,1305,130,36.113651,-115.146034,11.02,6.213,2043.0,9,3,1.9,0,0.0,-1,0.0,0.0,0.0,0
2918054,1501039020596,,,,,,,,,0,1260,130,,,,,,,,,,,,,,,
2918064,1501039020606,,,,,,,,,0,1260,130,,,,,,,,,,,,,,,
2918074,1501039020616,,,,,,,,,0,1260,130,,,,,,,,,,,,,,,
2918084,1501039020626,3.17,,-0.6,0.02,0.94,-1,-8,3,0,1215,130,,,,,,,,,,,,,,,
2918094,1501039020636,,,,,,,,,0,1320,120,,,,,,,,,,,,,,,
2918104,1501039020646,,,,,,,,,0,1350,120,,,,,,,,,,,,,,,
2918114,1501039020656,,,,,,,,,0,1320,120,,,,,,,,,,,,,,,
2918124,1501039020666,3.24,,-0.59,0.04,0.92,-1,-9,4,0,1290,120,,,,,,,,,,,,,,,
2918134,1501039020676,,,,,,,,,0,1275,120,,,,,,,,,,,,,,,
2918144,1501039020686,,,,,,,,,0,1275,120,36.113647,-115.146034,9.79,6.213,2042.9,9,3,1.9,0,0.0,-1,0.0,0.0,0.0,0
2918154,1501039020696,,,,,,,,,0,1230,120,,,,,,,,,,,,,,,
2918164,1501039020706,3.21,,-0.61,0.04,0.87,-2,-6,5,0,1215,120,,,,,,,,,,,,,,,
2918174,1501039020716,,,,,,,,,0,1155,120,,,,,,,,,,,,,,,
2918184,1501039020726,,,,,,,,,0,1350,1560,,,,,,,,,,,,,,,
2918194,1501039020736,,,,,,,,,0,1440,1560,,,,,,,,,,,,,,,
2918204,1501039020746,3.24,,-0.55,0.02,0.95,-2,-5,7,0,1425,1560,,,,,,,,,,,,,,,
2918214,1501039020756,,,,,,,,,0,1380,1560,,,,,,,,,,,,,,,
2918224,1501039020766,,,,,,,,,0,1365,1560,,,,,,,,,,,,,,,
2918234,1501039020776,,,,,,,,,0,1365,1560,,,,,,,,,,,,,,,
2918244,1501039020786,3.22,,-0.49,0.01,0.99,-2,-6,5,0,1350,1560,36.113647,-115.14605,8.54,6.213,2042.9,9,3,1.9,0,0.0,-1,0.0,0.0,0.0,0
2918254,1501039020796,,,,,,,,,0,1320,1560,,,,,,,,,,,,,,,
2918264,1501039020806,,,,,,,,,0,1245,1560,,,,,,,,,,,,,,,
2918274,1501039020816,,,,,,,,,0,1455,2190,,,,,,,,,,,,,,,
2918284,1501039020826,3.25,,-0.44,0.02,0.96,-2,-11,5,0,1560,2190,,,,,,,,,,,,,,,
2918294,1501039020836,,,,,,,,,0,1530,2190,,,,,,,,,,,,,,,
2918304,1501039020846,,,,,,,,,0,1485,2190,,,,,,,,,,,,,,,
2918314,1501039020856,,,,,,,,,0,1440,2190,,,,,,,,,,,,,,,
2918324,1501039020866,3.24,,-0.36,-0.01,0.95,-2,-12,5,0,1395,2190,,,,,,,,,,,,,,,
2918334,1501039020876,,,,,,,,,0,1350,2190,,,,,,,,,,,,,,,
2918344,1501039020886,,,,,,,,,0,1260,2190,36.113647,-115.14605,7.59,6.213,2042.8,9,3,1.9,0,0.0,-1,0.0,0.0,0.0,0
2918354,1501039020896,,,,,,,,,0,1455,2190,,,,,,,,,,,,,,,
2918364,1501039020906,3.23,,-0.34,0.02,0.96,-2,-14,5,0,1545,2190,,,,,,,,,,,,,,,
2918374,1501039020916,,,,,,,,,0,1530,720,,,,,,,,,,,,,,,
2918384,1501039020926,,,,,,,,,0,1485,720,,,,,,,,,,,,,,,
2918394,1501039020936,,,,,,,,,0,1455,720,,,,,,,,,,,,,,,
2918404,1501039020946,3.26,,-0.31,0.0,0.93,-1,-12,5,0,1425,720,,,,,,,,,,,,,,,
2918414,1501039020956,,,,,,,,,0,1380,720,,,,,,,,,,,,,,,
2918424,1501039020966,,,,,,,,,0,1305,720,,,,,,,,,,,,,,,
2918434,1501039020976,,,,,,,,,0,1515,720,,,,,,,,,,,,,,,
2918444,1501039020986,3.22,,-0.28,-0.03,0.99,-1,-10,4,0,1605,720,36.113647,-115.14605,6.62,6.214,2042.7,9,3,1.1,0,0.0,-1,0.0,0.0,0.0,0
2918454,1501039020996,,,,,,,,,0,1590,720,,,,,,,,,,,,,,,
2918464,1501039020998,,,,,,,,,0,1545,720,,,,,,,,,,,,,,,
2918474,1501039021008,,,,,,,,,0,1515,720,,,,,,,,,,,,,,,
2918484,1501039021018,3.26,,-0.22,-0.04,1.03,-1,-9,5,0,1470,450,,,,,,,,,,,,,,,
2918494,1501039021028,,,,,,,,,0,1440,450,,,,,,,,,,,,,,,
2918504,1501039021038,,,,,,,,,0,1350,450,,,,,,,,,,,,,,,
2918514,1501039021048,,,,,,,,,0,1530,450,,,,,,,,,,,,,,,
2918524,1501039021058,3.23,,-0.23,0.04,1.06,-1,-8,4,0,1620,450,,,,,,,,,,,,,,,
2918534,1501039021068,,,,,,,,,0,1590,450,,,,,,,,,,,,,,,
2918544,1501039021078,,,,,,,,,0,1545,450,36.113647,-115.146065,6.0,6.214,2042.5,9,3,1.1,0,0.0,-1,0.0,0.0,0.0,0
2918554,1501039021096,,,,,,,,,0,1515,450,,,,,,,,,,,,,,,
2918564,1501039021106,3.26,,-0.21,0.02,1.01,-1,-8,5,0,1470,450,,,,,,,,,,,,,,,
2918574,1501039021116,,,,,,,,,0,1440,450,,,,,,,,,,,,,,,
2918584,1501039021126,,,,,,,,,0,1350,450,,,,,,,,,,,,,,,
2918594,1501039021136,,,,,,,,,0,1515,330,,,,,,,,,,,,,,,
2918604,1501039021146,3.23,,-0.23,0.04,1.05,-1,-8,4,0,1605,330,,,,,,,,,,,,,,,
2918614,1501039021156,,,,,,,,,0,1575,330,,,,,,,,,,,,,,,
2918624,1501039021166,,,,,,,,,0,1530,330,,,,,,,,,,,,,,,
2918634,1501039021176,,,,,,,,,0,1500,330,,,,,,,,,,,,,,,
2918644,1501039021186,3.26,,-0.21,0.04,1.02,-1,-7,4,0,1470,330,36.113647,-115.146065,5.95,6.214,2042.4,9,3,1.1,0,0.0,-1,0.0,0.0,0.0,0
2918654,1501039021196,,,,,,,,,0,1425,330,,,,,,,,,,,,,,,
2918664,1501039021206,,,,,,,,,0,1350,330,,,,,,,,,,,,,,,
2918674,1501039021216,,,,,,,,,0,1515,330,,,,,,,,,,,,,,,
2918684,1501039021226,3.24,,-0.21,0.05,1.04,-1,-7,3,0,1590,330,,,,,,,,,,,,,,,
2918694,1501039021236,,,,,,,,,0,1575,0,,,,,,,,,,,,,,,
2918704,1501039021246,,,,,,,,,0,1530,0,,,,,,,,,,,,,,,
2918714,1501039021256,,,,,,,,,0,1500,0,,,,,,,,,,,,,,,
2918724,1501039021266,3.24,,-0.2,0.07,1.03,-1,-7,4,0,1455,220,,,,,,,,,,,,,,,
2918734,1501039021276,,,,,,,,,0,1425,220,,,,,,,,,,,,,,,
2918744,1501039021286,,,,,,,,,0,1335,220,36.113647,-115.146065,5.34,6.214,2042.2,9,3,1.1,0,0.0,-1,0.0,0.0,0.0,0
2918754,1501039021296,,,,,,,,,0,1500,220,,,,,,,,,,,,,,,
2918764,1501039021306,3.25,,-0.2,0.11,1.03,-1,-6,3,0,1590,220,,,,,,,,,,,,,,,
2918774,1501039021316,,,,,,,,,0,1560,220,,,,,,,,,,,,,,,
2918784,1501039021326,,,,,,,,,0,1515,220,,,,,,,,,,,,,,,
2918794,1501039021336,,,,,,,,,0,1470,220,,,,,,,,,,,,,,,
2918804,1501039021346,3.27,,-0.18,0.14,1.01,-1,-5,4,0,1440,220,,,,,,,,,,,,,,,
2918814,1501039021356,,,,,,,,,0,1395,220,,,,,,,,,,,,,,,
2918824,1501039021366,,,,,,,,,0,1395,220,,,,,,,,,,,,,,,
2918834,1501039021376,,,,,,,,,0,1485,220,,,,,,,,,,,,,,,
2918844,1501039021386,3.15,,-0.19,0.12,1.08,-1,-4,3,0,1575,220,36.113647,-115.146065,5.17,6.214,2042.1,9,3,1.1,0,0.0,-1,0.0,0.0,0.0,0
2918854,1501039021396,,,,,,,,,0,1545,220,,,,,,,,,,,,,,,
2918864,1501039021406,,,,,,,,,0,1500,10000000,,,,,,,,,,,,,,,
2918874,1501039021416,,,,,,,,,0,1455,170,,,,,,,,,,,,,,,
2918884,1501039021426,3.26,,-0.18,0.13,1.03,-1,-2,3,0,1455,170,,,,,,,,,,,,,,,
2918894,1501039021436,,,,,,,,,0,1425,170,,,,,,,,,,,,,,,
2918904,1501039021446,,,,,,,,,0,1380,170,,,,,,,,,,,,,,,
2918914,1501039021456,,,,,,,,,0,1275,170,,,,,,,,,,,,,,,
2918924,1501039021466,3.24,,-0.18,0.11,1.14,-1,-2,4,0,1470,170,,,,,,,,,,,,,,,
2918934,1501039021476,,,,,,,,,0,1575,170,,,,,,,,,,,,,,,
2918944,1501039021486,,,,,,,,,0,1545,170,36.113647,-115.146065,4.79,6.214,2042.0,9,3,1.1,0,0.0,-1,0.0,0.0,0.0,0
2918954,1501039021496,,,,,,,,,0,1500,170,,,,,,,,,,,,,,,
2918964,1501039021506,3.23,,-0.17,0.11,1.16,-0,-1,2,0,1455,170,,,,,,,,,,,,,,,
2918974,1501039021516,,,,,,,,,0,1425,170,,,,,,,,,,,,,,,
2918984,1501039021526,,,,,,,,,0,1365,170,,,,,,,,,,,,,,,
2918994,1501039021536,,,,,,,,,0,1275,170,,,,,,,,,,,,,,,
2919004,1501039021546,3.2,,-0.15,0.03,1.14,-1,-0,3,0,1470,170,,,,,,,,,,,,,,,
2919014,1501039021556,,,,,,,,,0,1560,170,,,,,,,,,,,,,,,
2919024,1501039021566,,,,,,,,,0,1530,170,,,,,,,,,,,,,,,
2919034,1501039021576,,,,,,,,,0,1485,130,,,,,,,,,,,,,,,
2919044,1501039021586,3.22,4.49,-0.11,0.03,1.15,-1,-2,3,0,1440,130,36.113647,-115.146072,4.18,6.214,2041.8,9,3,1.1,0,0.0,-1,0.0,0.0,0.0,0
2919054,1501039021595,,,,,,,,,0,1395,130,,,,,,,,,,,,,,,
2919064,1501039021605,,,,,,,,,0,1350,130,,,,,,,,,,,,,,,
2919074,1501039021615,,,,,,,,,0,1245,130,,,,,,,,,,,,,,,
2919084,1501039021625,3.23,,-0.15,0.03,1.11,-1,-2,3,0,1455,130,,,,,,,,,,,,,,,
2919094,1501039021635,,,,,,,,,0,1560,130,,,,,,,,,,,,,,,
2919104,1501039021645,,,,,,,,,0,1530,130,,,,,,,,,,,,,,,
2919114,1501039021655,,,,,,,,,0,1470,130,,,,,,,,,,,,,,,
2919124,1501039021665,3.16,,-0.12,-0.02,1.12,0,-4,2,0,1440,10000000,,,,,,,,,,,,,,,
2919134,1501039021675,,,,,,,,,0,1440,0,,,,,,,,,,,,,,,
2919144,1501039021685,,,,,,,,,0,1380,0,36.113647,-115.146072,3.65,6.215,2041.6,9,3,1.1,0,0.0,-1,0.0,0.0,0.0,0
2919154,1501039021695,,,,,,,,,0,1335,0,,,,,,,,,,,,,,,
2919164,1501039021705,3.22,,-0.14,-0.01,1.05,0,-5,2,0,1230,0,,,,,,,,,,,,,,,
2919174,1501039021715,,,,,,,,,0,1440,0,,,,,,,,,,,,,,,
2919184,1501039021725,,,,,,,,,0,1545,0,,,,,,,,,,,,,,,
2919194,1501039021735,,,,,,,,,0,1530,0,,,,,,,,,,,,,,,
2919204,1501039021745,3.16,,-0.13,-0.03,0.98,-0,-7,2,0,1470,0,,,,,,,,,,,,,,,
2919214,1501039021755,,,,,,,,,0,1440,0,,,,,,,,,,,,,,,
2919224,1501039021765,,,,,,,,,0,1395,440,,,,,,,,,,,,,,,
2919234,1501039021775,,,,,,,,,0,1350,440,,,,,,,,,,,,,,,
2919244,1501039021785,3.2,,-0.15,-0.05,0.96,-0,-8,2,0,1245,440,36.113647,-115.146072,3.33,6.215,2041.4,9,3,1.1,0,0.0,-1,0.0,0.0,0.0,0
2919254,1501039021797,,,,,,,,,0,1485,440,,,,,,,,,,,,,,,
2919264,1501039021807,,,,,,,,,0,1590,440,,,,,,,,,,,,,,,
2919274,1501039021817,,,,,,,,,0,1575,440,,,,,,,,,,,,,,,
2919284,1501039021827,3.21,,-0.24,-0.02,0.91,-0,-7,4,0,1545,440,,,,,,,,,,,,,,,
2919294,1501039021837,,,,,,,,,0,1515,440,,,,,,,,,,,,,,,
2919304,1501039021847,,,,,,,,,0,1485,440,,,,,,,,,,,,,,,
2919314,1501039021857,,,,,,,,,0,1455,440,,,,,,,,,,,,,,,
2919324,1501039021867,3.19,,-0.22,-0.02,0.93,-0,-7,3,0,1350,440,,,,,,,,,,,,,,,
2919334,1501039021877,,,,,,,,,0,1545,440,,,,,,,,,,,,,,,
2919344,1501039021887,,,,,,,,,0,1650,440,36.113647,-115.146072,3.0,6.215,2041.3,9,3,1.1,0,0.0,-1,0.0,0.0,0.0,0
2919354,1501039021897,,,,,,,,,0,1620,440,,,,,,,,,,,,,,,
2919364,1501039021907,3.2,,-0.27,0.02,0.82,-0,-6,3,0,1590,440,,,,,,,,,,,,,,,
2919374,1501039021917,,,,,,,,,0,1560,0,,,,,,,,,,,,,,,
2919384,1501039021927,,,,,,,,,0,1530,0,,,,,,,,,,,,,,,
2919394,1501039021937,,,,,,,,,0,1500,0,,,,,,,,,,,,,,,
2919404,1501039021947,3.17,,-0.28,0.02,0.79,-0,-9,5,0,1425,0,,,,,,,,,,,,,,,
2919414,1501039021957,,,,,,,,,0,1590,0,,,,,,,,,,,,,,,
2919424,1501039021967,,,,,,,,,0,1665,0,,,,,,,,,,,,,,,
2919434,1501039021977,,,,,,,,,0,1605,0,,,,,,,,,,,,,,,
2919444,1501039021987,3.14,,-0.3,-0.02,0.78,-1,-9,6,0,1590,0,36.113647,-115.146072,2.79,6.215,2041.1,9,3,1.1,0,0.0,-1,0.0,0.0,0.0,0
2919454,1501039021991,,,,,,,,,0,1560,0,,,,,,,,,,,,,,,
2919464,1501039022001,,,,,,,,,0,1530,0,,,,,,,,,,,,,,,
2919474,1501039022011,,,,,,,,,0,1455,0,,,,,,,,,,,,,,,
2919484,1501039022021,3.17,,-0.29,-0.02,0.75,-1,-9,6,0,1605,0,,,,,,,,,,,,,,,
2919494,1501039022031,,,,,,,,,0,1665,0,,,,,,,,,,,,,,,
2919504,1501039022041,,,,,,,,,0,1650,0,,,,,,,,,,,,,,,
2919514,1501039022051,,,,,,,,,0,1620,0,,,,,,,,,,,,,,,
2919524,1501039022061,3.15,,-0.32,-0.05,0.83,-1,-8,6,0,1590,0,,,,,,,,,,,,,,,
2919534,1501039022071,,,,,,,,,0,1560,0,,,,,,,,,,,,,,,
2919544,1501039022081,,,,,,,,,0,1530,0,36.113647,-115.146072,2.45,6.215,2041.0,9,3,0.8,0,0.0,-1,0.0,0.0,0.0,0
2919554,1501039022095,,,,,,,,,0,1470,0,,,,,,,,,,,,,,,
2919564,1501039022105,3.14,,-0.3,-0.07,0.87,-1,-7,6,0,1590,0,,,,,,,,,,,,,,,
2919574,1501039022115,,,,,,,,,0,1635,0,,,,,,,,,,,,,,,
2919584,1501039022125,,,,,,,,,0,1605,0,,,,,,,,,,,,,,,
2919594,1501039022135,,,,,,,,,0,1560,0,,,,,,,,,,,,,,,
2919604,1501039022145,3.16,,-0.24,-0.07,0.96,-2,-6,6,0,1530,0,,,,,,,,,,,,,,,
2919614,1501039022155,,,,,,,,,0,1485,0,,,,,,,,,,,,,,,
2919624,1501039022165,,,,,,,,,0,1455,0,,,,,,,,,,,,,,,
2919634,1501039022175,,,,,,,,,0,1395,0,,,,,,,,,,,,,,,
2919644,1501039022185,3.15,,-0.25,-0.06,1.0,-2,-6,5,0,1515,0,36.113647,-115.146088,1.98,6.215,2040.9,9,3,0.8,0,0.0,-1,0.0,0.0,0.0,0
2919654,1501039022195,,,,,,,,,0,1560,120,,,,,,,,,,,,,,,
2919664,1501039022205,,,,,,,,,0,1530,120,,,,,,,,,,,,,,,
2919674,1501039022215,,,,,,,,,0,1485,120,,,,,,,,,,,,,,,
2919684,1501039022225,3.21,,-0.23,-0.02,1.07,-2,-4,3,0,1455,120,,,,,,,,,,,,,,,
2919694,1501039022235,,,,,,,,,0,1425,120,,,,,,,,,,,,,,,
2919704,1501039022245,,,,,,,,,0,1380,120,,,,,,,,,,,,,,,
2919714,1501039022255,,,,,,,,,0,1290,120,,,,,,,,,,,,,,,
2919724,1501039022265,3.23,,-0.19,-0.04,1.06,-2,-3,4,0,1455,120,,,,,,,,,,,,,,,
2919734,1501039022275,,,,,,,,,0,1530,120,,,,,,,,,,,,,,,
2919744,1501039022285,,,,,,,,,0,1500,120,36.113647,-115.146088,1.45,6.215,2040.9,9,3,0.8,0,0.0,-1,0.0,0.0,0.0,0
2919754,1501039022297,,,,,,,,,0,1470,120,,,,,,,,,,,,,,,
2919764,1501039022307,3.22,,-0.16,-0.02,1.1,-2,-3,4,0,1425,120,,,,,,,,,,,,,,,
2919774,1501039022317,,,,,,,,,0,1395,120,,,,,,,,,,,,,,,
2919784,1501039022327,,,,,,,,,0,1350,120,,,,,,,,,,,,,,,
2919794,1501039022337,,,,,,,,,0,1260,120,,,,,,,,,,,,,,,
2919804,1501039022347,3.2,,-0.15,0.01,1.06,-2,-5,5,0,1470,10000000,,,,,,,,,,,,,,,
2919814,1501039022357,,,,,,,,,0,1545,0,,,,,,,,,,,,,,,
2919824,1501039022367,,,,,,,,,0,1530,0,,,,,,,,,,,,,,,
2919834,1501039022377,,,,,,,,,0,1485,0,,,,,,,,,,,,,,,
2919844,1501039022387,3.2,,-0.12,-0.01,1.07,-2,-5,4,0,1455,0,36.113647,-115.146088,1.14,6.215,2040.9,9,3,1.2,0,0.0,-1,0.0,0.0,0.0,0
2919854,1501039022397,,,,,,,,,0,1455,0,,,,,,,,,,,,,,,
2919864,1501039022407,,,,,,,,,0,1410,0,,,,,,,,,,,,,,,
2919874,1501039022417,,,,,,,,,0,1380,0,,,,,,,,,,,,,,,
2919884,1501039022427,3.23,,-0.11,0.0,1.02,-1,-7,4,0,1275,0,,,,,,,,,,,,,,,
2919894,1501039022437,,,,,,,,,0,1500,0,,,,,,,,,,,,,,,
2919904,1501039022447,,,,,,,,,0,1590,0,,,,,,,,,,,,,,,
2919914,1501039022457,,,,,,,,,0,1560,0,,,,,,,,,,,,,,,
2919924,1501039022467,3.23,,-0.07,-0.04,0.97,-1,-8,4,0,1530,0,,,,,,,,,,,,,,,
2919934,1501039022477,,,,,,,,,0,1500,0,,,,,,,,,,,,,,,
2919944,1501039022487,,,,,,,,,0,1455,0,36.113647,-115.146088,0.0,6.215,2041.0,9,3,1.2,0,0.0,-1,0.0,0.0,0.0,0
2919954,1501039022497,,,,,,,,,0,1425,0,,,,,,,,,,,,,,,
2919964,1501039022507,3.22,,-0.06,-0.06,0.94,-1,-8,3,0,1320,0,,,,,,,,,,,,,,,
2919974,1501039022517,,,,,,,,,0,1530,0,,,,,,,,,,,,,,,
2919984,1501039022527,,,,,,,,,0,1635,0,,,,,,,,,,,,,,,
2919994,1501039022537,,,,,,,,,0,1590,0,,,,,,,,,,,,,,,
2920004,1501039022547,3.21,,-0.03,-0.1,0.91,-2,-8,5,0,1560,0,,,,,,,,,,,,,,,
2920014,1501039022557,,,,,,,,,0,1530,0,,,,,,,,,,,,,,,
2920024,1501039022567,,,,,,,,,0,1485,0,,,,,,,,,,,,,,,
2920034,1501039022577,,,,,,,,,0,1470,0,,,,,,,,,,,,,,,
2920044,1501039022587,3.22,4.49,-0.04,-0.09,0.86,-1,-9,6,0,1365,0,36.113647,-115.146088,0.0,6.215,2040.9,9,3,1.2,0,0.0,-1,0.0,0.0,0.0,0
2920054,1501039022596,,,,,,,,,0,1650,0,,,,,,,,,,,,,,,
2920064,1501039022606,,,,,,,,,0,1620,0,,,,,,,,,,,,,,,
2920074,1501039022616,,,,,,,,,0,1575,0,,,,,,,,,,,,,,,
2920084,1501039022626,3.2,,-0.03,-0.12,0.88,-1,-8,7,0,1545,0,,,,,,,,,,,,,,,
2920094,1501039022636,,,,,,,,,0,1515,0,,,,,,,,,,,,,,,
2920104,1501039022646,,,,,,,,,0,1470,0,,,,,,,,,,,,,,,
2920114,1501039022656,,,,,,,,,0,1380,0,,,,,,,,,,,,,,,
2920124,1501039022666,3.23,,-0.04,-0.12,0.81,-1,-8,7,0,1575,0,,,,,,,,,,,,,,,
2920134,1501039022676,,,,,,,,,0,1650,0,,,,,,,,,,,,,,,
2920144,1501039022686,,,,,,,,,0,1635,0,36.113647,-115.146088,0.0,6.215,2040.8,9,3,1.2,0,0.0,-1,0.0,0.0,0.0,0
2920154,1501039022696,,,,,,,,,0,1590,0,,,,,,,,,,,,,,,
2920164,1501039022706,3.21,,-0.02,-0.13,0.91,-1,-8,6,0,1560,0,,,,,,,,,,,,,,,
2920174,1501039022716,,,,,,,,,0,1530,0,,,,,,,,,,,,,,,
2920184,1501039022726,,,,,,,,,0,1500,0,,,,,,,,,,,,,,,
2920194,1501039022736,,,,,,,,,0,1395,0,,,,,,,,,,,,,,,
2920204,1501039022746,3.22,,-0.02,-0.13,0.95,-2,-6,7,0,1575,0,,,,,,,,,,,,,,,
2920214,1501039022756,,,,,,,,,0,1650,0,,,,,,,,,,,,,,,
2920224,1501039022766,,,,,,,,,0,1635,0,,,,,,,,,,,,,,,
2920234,1501039022776,,,,,,,,,0,1590,0,,,,,,,,,,,,,,,
2920244,1501039022786,3.21,,-0.0,-0.11,1.01,-1,-5,8,0,1545,0,36.113647,-115.146088,0.0,6.215,2040.7,9,3,1.2,0,0.0,-1,0.0,0.0,0.0,0
2920254,1501039022796,,,,,,,,,0,1515,0,,,,,,,,,,,,,,,
2920264,1501039022806,,,,,,,,,0,1485,0,,,,,,,,,,,,,,,
2920274,1501039022816,,,,,,,,,0,1395,0,,,,,,,,,,,,,,,
2920284,1501039022826,3.22,,0.02,-0.11,1.07,-2,-3,8,0,1560,0,,,,,,,,,,,,,,,
2920294,1501039022836,,,,,,,,,0,1650,0,,,,,,,,,,,,,,,
2920304,1501039022846,,,,,,,,,0,1620,0,,,,,,,,,,,,,,,
2920314,1501039022856,,,,,,,,,0,1575,0,,,,,,,,,,,,,,,
2920324,1501039022866,3.21,,0.02,-0.07,1.09,-1,-5,6,0,1545,0,,,,,,,,,,,,,,,
2920334,1501039022876,,,,,,,,,0,1515,0,,,,,,,,,,,,,,,
2920344,1501039022886,,,,,,,,,0,1470,0,36.113647,-115.146088,0.0,6.215,2040.6,9,3,1.2,0,0.0,-1,0.0,0.0,0.0,0
2920354,1501039022896,,,,,,,,,0,1380,0,,,,,,,,,,,,,,,
2920364,1501039022906,3.21,,0.01,-0.05,1.16,-1,-4,4,0,1560,0,,,,,,,,,,,,,,,
2920374,1501039022916,,,,,,,,,0,1605,0,,,,,,,,,,,,,,,
2920384,1501039022926,,,,,,,,,0,1560,0,,,,,,,,,,,,,,,
2920394,1501039022936,,,,,,,,,0,1530,0,,,,,,,,,,,,,,,
2920404,1501039022946,3.17,,0.01,0.0,1.09,-1,-5,2,0,1485,0,,,,,,,,,,,,,,,
2920414,1501039022956,,,,,,,,,0,1485,0,,,,,,,,,,,,,,,
2920424,1501039022966,,,,,,,,,0,1455,0,,,,,,,,,,,,,,,
2920434,1501039022976,,,,,,,,,0,1545,0,,,,,,,,,,,,,,,
2920444,1501039022986,3.21,,0.01,0.03,1.13,-0,-3,2,0,1620,0,36.113647,-115.146088,0.0,6.215,2040.5,9,3,1.2,0,0.0,-1,0.0,0.0,0.0,0
2920454,1501039022996,,,,,,,,,0,1590,0,,,,,,,,,,,,,,,
2920464,1501039023000,,,,,,,,,0,1560,0,,,,,,,,,,,,,,,
2920474,1501039023010,,,,,,,,,0,1515,0,,,,,,,,,,,,,,,
2920484,1501039023020,3.22,,0.0,0.06,1.02,-0,-4,2,0,1485,0,,,,,,,,,,,,,,,
2920494,1501039023030,,,,,,,,,0,1455,0,,,,,,,,,,,,,,,
2920504,1501039023040,,,,,,,,,0,1350,0,,,,,,,,,,,,,,,
2920514,1501039023050,,,,,,,,,0,1545,0,,,,,,,,,,,,,,,
2920524,1501039023060,3.22,,0.0,0.09,1.06,-1,-3,1,0,1635,0,,,,,,,,,,,,,,,
2920534,1501039023070,,,,,,,,,0,1605,0,,,,,,,,,,,,,,,
2920544,1501039023080,,,,,,,,,0,1560,0,36.113647,-115.146088,0.0,6.215,2040.3,9,3,1.2,0,0.0,-1,0.0,0.0,0.0,0
2920554,1501039023096,,,,,,,,,0,1530,0,,,,,,,,,,,,,,,
2920564,1501039023106,3.23,,-0.0,0.1,0.98,-1,-4,1,0,1500,0,,,,,,,,,,,,,,,
2920574,1501039023116,,,,,,,,,0,1455,0,,,,,,,,,,,,,,,
2920584,1501039023126,,,,,,,,,0,1365,0,,,,,,,,,,,,,,,
2920594,1501039023136,,,,,,,,,0,1545,0,,,,,,,,,,,,,,,
2920604,1501039023146,3.24,,-0.0,0.12,1.02,-1,-4,1,0,1635,0,,,,,,,,,,,,,,,
2920614,1501039023156,,,,,,,,,0,1605,0,,,,,,,,,,,,,,,
2920624,1501039023166,,,,,,,,,0,1560,0,,,,,,,,,,,,,,,
2920634,1501039023176,,,,,,,,,0,1515,0,,,,,,,,,,,,,,,
2920644,1501039023186,3.25,,-0.01,0.11,0.95,-1,-4,1,0,1485,0,36.113647,-115.146088,0.0,6.215,2040.3,9,3,1.2,0,0.0,-1,0.0,0.0,0.0,0
2920654,1501039023198,,,,,,,,,0,1455,0,,,,,,,,,,,,,,,
2920664,1501039023208,,,,,,,,,0,1350,0,,,,,,,,,,,,,,,
2920674,1501039023218,,,,,,,,,0,1545,0,,,,,,,,,,,,,,,
2920684,1501039023228,3.25,,-0.01,0.12,0.97,-2,-6,1,0,1635,0,,,,,,,,,,,,,,,
2920694,1501039023238,,,,,,,,,0,1590,0,,,,,,,,,,,,,,,
2920704,1501039023248,,,,,,,,,0,1560,0,,,,,,,,,,,,,,,
2920714,1501039023258,,,,,,,,,0,1530,0,,,,,,,,,,,,,,,
2920724,1501039023268,3.27,,-0.01,0.09,0.92,-2,-6,1,0,1485,0,,,,,,,,,,,,,,,
2920734,1501039023278,,,,,,,,,0,1440,0,,,,,,,,,,,,,,,
2920744,1501039023288,,,,,,,,,0,1350,0,36.113647,-115.146088,0.0,6.215,2040.1,9,3,1.2,0,0.0,-1,0.0,0.0,0.0,0
2920754,1501039023296,,,,,,,,,0,1530,0,,,,,,,,,,,,,,,
2920764,1501039023306,3.5,,-0.0,0.08,0.92,-2,-8,1,0,1620,0,,,,,,,,,,,,,,,
2920774,1501039023316,,,,,,,,,0,1590,0,,,,,,,,,,,,,,,
2920784,1501039023326,,,,,,,,,0,1545,0,,,,,,,,,,,,,,,
2920794,1501039023336,,,,,,,,,0,1515,0,,,,,,,,,,,,,,,
2920804,1501039023346,3.76,,-0.01,0.05,0.88,-2,-8,2,0,1470,0,,,,,,,,,,,,,,,
2920814,1501039023356,,,,,,,,,0,1440,0,,,,,,,,,,,,,,,
2920824,1501039023366,,,,,,,,,0,1335,0,,,,,,,,,,,,,,,
2920834,1501039023376,,,,,,,,,0,1530,0,,,,,,,,,,,,,,,
2920844,1501039023386,3.95,,-0.01,0.05,0.86,-1,-9,2,0,1620,0,36.113647,-115.146088,0.0,6.215,2040.1,9,3,0.8,0,0.0,-1,0.0,0.0,0.0,0
2920854,1501039023394,,,,,,,,,0,1590,0,,,,,,,,,,,,,,,
2920864,1501039023404,,,,,,,,,0,1545,0,,,,,,,,,,,,,,,
2920874,1501039023414,,,,,,,,,0,1500,0,,,,,,,,,,,,,,,
2920884,1501039023424,3.84,,-0.0,0.03,0.83,-1,-8,2,0,1470,0,,,,,,,,,,,,,,,
2920894,1501039023434,,,,,,,,,0,1425,0,,,,,,,,,,,,,,,
2920904,1501039023444,,,,,,,,,0,1335,0,,,,,,,,,,,,,,,
2920914,1501039023454,,,,,,,,,0,1530,0,,,,,,,,,,,,,,,
2920924,1501039023464,3.66,,-0.02,0.03,0.82,-1,-9,4,0,1605,0,,,,,,,,,,,,,,,
2920934,1501039023474,,,,,,,,,0,1590,0,,,,,,,,,,,,,,,
2920944,1501039023484,,,,,,,,,0,1545,0,36.113647,-115.146088,0.0,6.215,2040.1,9,3,0.8,0,0.0,-1,0.0,0.0,0.0,0
2920954,1501039023498,,,,,,,,,0,1500,0,,,,,,,,,,,,,,,
2920964,1501039023508,3.61,,-0.01,-0.0,0.79,-1,-9,4,0,1470,0,,,,,,,,,,,,,,,
2920974,1501039023518,,,,,,,,,0,1425,0,,,,,,,,,,,,,,,
2920984,1501039023528,,,,,,,,,0,1320,0,,,,,,,,,,,,,,,
2920994,1501039023538,,,,,,,,,0,1530,0,,,,,,,,,,,,,,,
2921004,1501039023548,3.52,,-0.01,0.0,0.79,-1,-9,5,0,1620,0,,,,,,,,,,,,,,,
2921014,1501039023558,,,,,,,,,0,1590,0,,,,,,,,,,,,,,,
2921024,1501039023568,,,,,,,,,0,1545,0,,,,,,,,,,,,,,,
2921034,1501039023578,,,,,,,,,0,1515,0,,,,,,,,,,,,,,,
2921044,1501039023588,3.44,4.51,-0.02,-0.03,0.8,-1,-8,5,0,1470,0,36.113647,-115.146088,0.0,6.215,2040.1,9,3,0.8,0,0.0,-1,0.0,0.0,0.0,0
2921054,1501039023597,,,,,,,,,0,1440,0,,,,,,,,,,,,,,,
2921064,1501039023607,,,,,,,,,0,1335,0,,,,,,,,,,,,,,,
2921074,1501039023617,,,,,,,,,0,1545,0,,,,,,,,,,,,,,,
2921084,1501039023627,3.37,,-0.02,-0.03,0.8,-1,-10,5,0,1635,0,,,,,,,,,,,,,,,
2921094,1501039023637,,,,,,,,,0,1605,0,,,,,,,,,,,,,,,
2921104,1501039023647,,,,,,,,,0,1575,0,,,,,,,,,,,,,,,
2921114,1501039023657,,,,,,,,,0,1530,0,,,,,,,,,,,,,,,
2921124,1501039023667,3.38,,-0.03,-0.05,0.77,-1,-9,6,0,1500,0,,,,,,,,,,,,,,,
2921134,1501039023677,,,,,,,,,0,1455,0,,,,,,,,,,,,,,,
2921144,1501039023687,,,,,,,,,0,1365,0,36.113647,-115.146088,0.0,6.215,2040.1,9,3,0.8,0,0.0,-1,0.0,0.0,0.0,0
2921154,1501039023697,,,,,,,,,0,1560,0,,,,,,,,,,,,,,,
2921164,1501039023707,3.35,,-0.04,-0.06,0.77,-1,-11,6,0,1635,0,,,,,,,,,,,,,,,
2921174,1501039023717,,,,,,,,,0,1605,0,,,,,,,,,,,,,,,
2921184,1501039023727,,,,,,,,,0,1560,0,,,,,,,,,,,,,,,
2921194,1501039023737,,,,,,,,,0,1530,0,,,,,,,,,,,,,,,
2921204,1501039023747,3.32,,-0.03,-0.07,0.79,-1,-8,7,0,1500,0,,,,,,,,,,,,,,,
2921214,1501039023757,,,,,,,,,0,1455,0,,,,,,,,,,,,,,,
2921224,1501039023767,,,,,,,,,0,1380,0,,,,,,,,,,,,,,,
2921234,1501039023777,,,,,,,,,0,1635,0,,,,,,,,,,,,,,,
2921244,1501039023787,3.24,,-0.03,-0.08,0.73,-1,-11,7,0,1620,0,36.113647,-115.146088,0.0,6.215,2040.1,9,3,0.8,0,0.0,-1,0.0,0.0,0.0,0
2921254,1501039023797,,,,,,,,,0,1575,0,,,,,,,,,,,,,,,
2921264,1501039023807,,,,,,,,,0,1545,0,,,,,,,,,,,,,,,
2921274,1501039023817,,,,,,,,,0,1515,0,,,,,,,,,,,,,,,
2921284,1501039023827,3.21,,-0.03,-0.08,0.8,-1,-8,7,0,1470,0,,,,,,,,,,,,,,,
2921294,1501039023837,,,,,,,,,0,1380,0,,,,,,,,,,,,,,,
2921304,1501039023847,,,,,,,,,0,1560,0,,,,,,,,,,,,,,,
2921314,1501039023857,,,,,,,,,0,1635,0,,,,,,,,,,,,,,,
2921324,1501039023867,3.22,,-0.05,-0.08,0.8,-1,-10,6,0,1605,0,,,,,,,,,,,,,,,
2921334,1501039023877,,,,,,,,,0,1575,0,,,,,,,,,,,,,,,
2921344,1501039023887,,,,,,,,,0,1545,0,36.113647,-115.146088,0.0,6.215,2040.1,9,3,0.8,0,0.0,-1,0.0,0.0,0.0,0
2921354,1501039023897,,,,,,,,,0,1500,0,,,,,,,,,,,,,,,
2921364,1501039023907,3.2,,-0.04,-0.09,0.88,-1,-8,6,0,1470,0,,,,,,,,,,,,,,,
2921374,1501039023917,,,,,,,,,0,1395,0,,,,,,,,,,,,,,,
2921384,1501039023927,,,,,,,,,0,1560,0,,,,,,,,,,,,,,,
2921394,1501039023937,,,,,,,,,0,1635,0,,,,,,,,,,,,,,,
2921404,1501039023947,3.29,,-0.04,-0.08,0.89,-1,-7,7,0,1605,0,,,,,,,,,,,,,,,
2921414,1501039023957,,,,,,,,,0,1560,0,,,,,,,,,,,,,,,
2921424,1501039023967,,,,,,,,,0,1530,0,,,,,,,,,,,,,,,
2921434,1501039023977,,,,,,,,,0,1500,0,,,,,,,,,,,,,,,
2921444,1501039023987,3.21,,-0.03,-0.08,0.97,-1,-5,6,0,1470,0,36.113647,-115.146088,0.0,6.215,2040.1,9,3,0.8,0,0.0,-1,0.0,0.0,0.0,0
2921454,1501039023997,,,,,,,,,0,1380,0,,,,,,,,,,,,,,,
2921464,1501039023999,,,,,,,,,0,1560,0,,,,,,,,,,,,,,,
2921474,1501039024009,,,,,,,,,0,1635,0,,,,,,,,,,,,,,,
2921484,1501039024019,3.2,,-0.01,-0.1,1.01,-1,-5,7,0,1620,0,,,,,,,,,,,,,,,
2921494,1501039024029,,,,,,,,,0,1590,0,,,,,,,,,,,,,,,
2921504,1501039024039,,,,,,,,,0,1545,0,,,,,,,,,,,,,,,
2921514,1501039024049,,,,,,,,,0,1515,0,,,,,,,,,,,,,,,
2921524,1501039024059,3.16,,0.01,-0.09,1.07,-1,-3,6,0,1485,0,,,,,,,,,,,,,,,
2921534,1501039024069,,,,,,,,,0,1395,0,,,,,,,,,,,,,,,
2921544,1501039024079,,,,,,,,,0,1575,0,36.113644,-115.146088,0.0,6.215,2038.8,9,3,1.9,0,0.0,-1,0.0,0.0,0.0,0
2921554,1501039024095,,,,,,,,,0,1650,0,,,,,,,,,,,,,,,
2921564,1501039024105,3.12,,0.02,-0.08,1.12,-1,-3,5,0,1635,0,,,,,,,,,,,,,,,
2921574,1501039024115,,,,,,,,,0,1560,0,,,,,,,,,,,,,,,
2921584,1501039024125,,,,,,,,,0,1530,0,,,,,,,,,,,,,,,
2921594,1501039024135,,,,,,,,,0,1530,0,,,,,,,,,,,,,,,
2921604,1501039024145,3.05,,0.02,-0.05,1.22,-1,-4,5,0,1410,0,,,,,,,,,,,,,,,
2921614,1501039024155,,,,,,,,,0,1590,0,,,,,,,,,,,,,,,
2921624,1501039024165,,,,,,,,,0,1650,0,,,,,,,,,,,,,,,
2921634,1501039024175,,,,,,,,,0,1635,0,,,,,,,,,,,,,,,
2921644,1501039024185,3.05,,0.04,-0.01,1.19,-2,-2,3,0,1590,0,36.113644,-115.146088,0.0,6.215,2038.8,9,3,1.9,0,0.0,-1,0.0,0.0,0.0,0
2921654,1501039024195,,,,,,,,,0,1575,0,,,,,,,,,,,,,,,
2921664,1501039024205,,,,,,,,,0,1530,0,,,,,,,,,,,,,,,
2921674,1501039024215,,,,,,,,,0,1500,0,,,,,,,,,,,,,,,
2921684,1501039024225,2.99,,0.04,0.03,1.13,-1,-5,2,0,1425,0,,,,,,,,,,,,,,,
2921694,1501039024235,,,,,,,,,0,1575,0,,,,,,,,,,,,,,,
2921704,1501039024245,,,,,,,,,0,1650,0,,,,,,,,,,,,,,,
2921714,1501039024255,,,,,,,,,0,1620,0,,,,,,,,,,,,,,,
2921724,1501039024265,2.93,,0.02,0.05,1.06,-2,-6,2,0,1590,0,,,,,,,,,,,,,,,
2921734,1501039024275,,,,,,,,,0,1560,0,,,,,,,,,,,,,,,
2921744,1501039024285,,,,,,,,,0,1515,0,36.113644,-115.146088,0.0,6.215,2038.8,9,3,1.9,0,0.0,-1,0.0,0.0,0.0,0
2921754,1501039024295,,,,,,,,,0,1485,0,,,,,,,,,,,,,,,
2921764,1501039024305,2.85,,0.03,0.02,0.97,-1,-7,2,0,1410,0,,,,,,,,,,,,,,,
2921774,1501039024315,,,,,,,,,0,1575,0,,,,,,,,,,,,,,,
2921784,1501039024325,,,,,,,,,0,1635,0,,,,,,,,,,,,,,,
2921794,1501039024335,,,,,,,,,0,1620,0,,,,,,,,,,,,,,,
2921804,1501039024345,2.79,,0.02,-0.0,0.91,-1,-8,4,0,1575,0,,,,,,,,,,,,,,,
2921814,1501039024355,,,,,,,,,0,1545,0,,,,,,,,,,,,,,,
2921824,1501039024365,,,,,,,,,0,1515,0,,,,,,,,,,,,,,,
2921834,1501039024375,,,,,,,,,0,1485,0,,,,,,,,,,,,,,,
2921844,1501039024385,2.68,,0.02,-0.02,0.83,-1,-8,3,0,1410,0,36.113644,-115.146088,0.0,6.215,2038.8,9,3,1.9,0,0.0,-1,0.0,0.0,0.0,0
2921854,1501039024395,,,,,,,,,0,1635,0,,,,,,,,,,,,,,,
2921864,1501039024405,,,,,,,,,0,1620,0,,,,,,,,,,,,,,,
2921874,1501039024415,,,,,,,,,0,1590,0,,,,,,,,,,,,,,,
2921884,1501039024425,2.6,,0.02,-0.05,0.86,-1,-8,4,0,1560,0,,,,,,,,,,,,,,,
2921894,1501039024435,,,,,,,,,0,1515,0,,,,,,,,,,,,,,,
2921904,1501039024445,,,,,,,,,0,1485,0,,,,,,,,,,,,,,,
2921914,1501039024455,,,,,,,,,0,1410,0,,,,,,,,,,,,,,,
2921924,1501039024465,2.6,,0.02,-0.05,0.88,-1,-6,5,0,1575,0,,,,,,,,,,,,,,,
2921934,1501039024475,,,,,,,,,0,1650,0,,,,,,,,,,,,,,,
2921944,1501039024485,,,,,,,,,0,1620,0,36.113644,-115.146088,0.0,6.215,2038.8,9,3,1.9,0,0.0,-1,0.0,0.0,0.0,0
2921954,1501039024495,,,,,,,,,0,1605,0,,,,,,,,,,,,,,,
2921964,1501039024499,2.56,,0.02,-0.07,0.94,-1,-7,5,0,1560,0,,,,,,,,,,,,,,,
2921974,1501039024509,,,,,,,,,0,1530,0,,,,,,,,,,,,,,,
2921984,1501039024519,,,,,,,,,0,1500,0,,,,,,,,,,,,,,,
2921994,1501039024529,,,,,,,,,0,1410,0,,,,,,,,,,,,,,,
2922004,1501039024539,2.57,,0.01,-0.06,1.07,-1,-6,6,0,1590,0,,,,,,,,,,,,,,,
2922014,1501039024549,,,,,,,,,0,1665,0,,,,,,,,,,,,,,,
2922024,1501039024559,,,,,,,,,0,1635,0,,,,,,,,,,,,,,,
2922034,1501039024569,,,,,,,,,0,1605,0,,,,,,,,,,,,,,,
2922044,1501039024579,2.55,4.5,0.02,-0.06,1.1,-2,-6,5,0,1575,0,36.113644,-115.146088,0.0,6.215,2038.8,9,3,1.9,0,0.0,-1,0.0,0.0,0.0,0
2922054,1501039024594,,,,,,,,,0,1545,0,,,,,,,,,,,,,,,
2922064,1501039024604,,,,,,,,,0,1500,0,,,,,,,,,,,,,,,
2922074,1501039024614,,,,,,,,,0,1425,0,,,,,,,,,,,,,,,
2922084,1501039024624,2.53,,0.04,-0.05,1.18,-1,-7,5,0,1665,0,,,,,,,,,,,,,,,
2922094,1501039024634,,,,,,,,,0,1650,0,,,,,,,,,,,,,,,
2922104,1501039024644,,,,,,,,,0,1605,0,,,,,,,,,,,,,,,
